WetView ver 7.1	07-20-2019	15:35:14
AC9 Absorption and Attenuation Meter
00000311		; Serial number
2	; structure version number
Reserved
0.000000	0.000000		; Depth calibration
19200			; Baud rate
0.100000			; Path length (meters)
23			; number of temperature calibration bins
				12.61517	13.44096	14.46844	15.49904	16.50682	17.50108	18.49752	19.51783	20.49177	21.49009	22.48286	23.50673	24.54012	25.54812	26.49986	27.49321	28.50960	29.48671	30.47471	31.49432	32.50437	33.48679	34.49133	; temperature bins
a650	Blue	18.61587		0.01156	0.01096	0.01010	0.00930	0.00851	0.00774	0.00661	0.00573	0.00499	0.00402	0.00285	0.00203	0.00096	0.00000	-0.00110	-0.00152	-0.00210	-0.00247	-0.00259	-0.00317	-0.00346	-0.00380	-0.00403		; offset and temperature correction info
a676	Green	18.78942		0.00964	0.00899	0.00863	0.00813	0.00730	0.00639	0.00545	0.00448	0.00385	0.00301	0.00233	0.00165	0.00046	0.00000	-0.00106	-0.00167	-0.00251	-0.00280	-0.00316	-0.00329	-0.00377	-0.00392	-0.00441		; offset and temperature correction info
a715	Brown	18.59217		0.01171	0.01109	0.01043	0.00975	0.00878	0.00789	0.00685	0.00572	0.00469	0.00356	0.00255	0.00160	0.00061	0.00000	-0.00063	-0.00113	-0.00152	-0.00183	-0.00226	-0.00293	-0.00364	-0.00404	-0.00473		; offset and temperature correction info
c510	Red	18.18396		-0.00549	-0.00480	-0.00383	-0.00272	-0.00202	-0.00118	-0.00044	-0.00038	-0.00015	-0.00021	0.00013	0.00007	-0.00007	0.00000	-0.00007	-0.00065	-0.00045	-0.00018	0.00007	0.00039	-0.00001	-0.00002	-0.00045		; offset and temperature correction info
c532	Magenta	18.26528		-0.00721	-0.00645	-0.00581	-0.00518	-0.00465	-0.00345	-0.00281	-0.00270	-0.00182	-0.00141	-0.00108	-0.00072	-0.00022	0.00000	0.00044	0.00030	0.00031	-0.00006	-0.00052	-0.00089	-0.00142	-0.00149	-0.00154		; offset and temperature correction info
c555	Black	18.37125		-0.00430	-0.00419	-0.00381	-0.00319	-0.00286	-0.00254	-0.00205	-0.00196	-0.00138	-0.00137	-0.00067	-0.00051	-0.00030	0.00000	0.00067	0.00087	0.00057	0.00027	-0.00015	-0.00089	-0.00127	-0.00137	-0.00150		; offset and temperature correction info
a412	LtBlue	15.33566		-0.06011	-0.05567	-0.05012	-0.04441	-0.03922	-0.03412	-0.02941	-0.02503	-0.02049	-0.01588	-0.01121	-0.00784	-0.00311	0.00000	0.00273	0.00611	0.00757	0.00871	0.01066	0.01299	0.01539	0.01781	0.02175		; offset and temperature correction info
a440	LtGreen	16.05925		-0.01380	-0.01214	-0.01039	-0.00858	-0.00690	-0.00532	-0.00426	-0.00322	-0.00230	-0.00158	-0.00055	0.00006	0.00001	0.00000	0.00017	0.00016	-0.00094	-0.00222	-0.00363	-0.00486	-0.00567	-0.00651	-0.00782		; offset and temperature correction info
a488	Yellow	16.82827		0.00255	0.00293	0.00331	0.00354	0.00373	0.00378	0.00363	0.00350	0.00291	0.00225	0.00215	0.00142	0.00099	0.00000	-0.00092	-0.00169	-0.00295	-0.00396	-0.00479	-0.00542	-0.00582	-0.00604	-0.00663		; offset and temperature correction info
c650	Blue	18.49287		-0.00570	-0.00516	-0.00456	-0.00403	-0.00346	-0.00232	-0.00132	-0.00122	-0.00073	-0.00066	-0.00035	-0.00016	0.00003	0.00000	0.00044	0.00078	0.00108	0.00057	0.00040	-0.00042	-0.00033	-0.00029	-0.00034		; offset and temperature correction info
c676	Green	18.50570		0.00299	0.00293	0.00287	0.00293	0.00278	0.00294	0.00317	0.00251	0.00243	0.00215	0.00139	0.00123	0.00068	0.00000	-0.00041	-0.00106	-0.00205	-0.00268	-0.00325	-0.00413	-0.00495	-0.00610	-0.00674		; offset and temperature correction info
c715	Brown	17.88888		0.00826	0.00812	0.00773	0.00790	0.00766	0.00758	0.00753	0.00650	0.00571	0.00461	0.00359	0.00222	0.00101	0.00000	-0.00146	-0.00284	-0.00385	-0.00448	-0.00463	-0.00513	-0.00623	-0.00715	-0.00838		; offset and temperature correction info
a510	Red	17.18050		0.00353	0.00364	0.00354	0.00361	0.00381	0.00381	0.00356	0.00332	0.00277	0.00229	0.00176	0.00116	0.00036	0.00000	-0.00014	-0.00069	-0.00088	-0.00147	-0.00150	-0.00129	-0.00120	-0.00134	-0.00091		; offset and temperature correction info
a532	Magenta	17.40228		0.00550	0.00548	0.00526	0.00479	0.00464	0.00422	0.00393	0.00328	0.00253	0.00212	0.00136	0.00085	0.00039	0.00000	-0.00059	-0.00146	-0.00188	-0.00262	-0.00330	-0.00393	-0.00491	-0.00540	-0.00605		; offset and temperature correction info
a555	Black	17.72308		0.00849	0.00832	0.00800	0.00760	0.00724	0.00655	0.00580	0.00495	0.00435	0.00347	0.00252	0.00153	0.00049	0.00000	-0.00050	-0.00155	-0.00214	-0.00306	-0.00350	-0.00411	-0.00470	-0.00539	-0.00570		; offset and temperature correction info
c412	LtBlue	16.72802		-0.05949	-0.05458	-0.04744	-0.04134	-0.03547	-0.03064	-0.02511	-0.02047	-0.01574	-0.01163	-0.00761	-0.00442	-0.00204	0.00000	0.00100	0.00051	-0.00043	-0.00239	-0.00475	-0.00629	-0.00827	-0.00955	-0.01337		; offset and temperature correction info
c440	LtGreen	17.42637		-0.02723	-0.02503	-0.02216	-0.01930	-0.01691	-0.01394	-0.01125	-0.00926	-0.00732	-0.00582	-0.00401	-0.00226	-0.00093	0.00000	0.00082	0.00123	0.00133	0.00097	0.00038	-0.00003	-0.00022	-0.00023	-0.00125		; offset and temperature correction info
c488	Yellow	18.03666		-0.00640	-0.00554	-0.00465	-0.00357	-0.00276	-0.00154	-0.00067	-0.00031	-0.00014	-0.00012	0.00046	0.00032	0.00020	0.00000	0.00001	-0.00024	-0.00060	-0.00084	-0.00126	-0.00180	-0.00276	-0.00304	-0.00427		; offset and temperature correction info
0.003500	0.004000	0.015000	0.020000	0.015000	0.020000	2500.000000	2000.000000	1000.000000	; maxANoise	maxCNoise	maxADifference	maxCDifference	minACounts	minCCounts	minRCounts	maxTempSdev	maxDepthSdev
0			; auxilliary capabilities
1			; acquisition binsize
0	2.09327	1.94326	1.71300	8.31834	7.54249	6.91342	16.54812	10.38782	5.81841	5.77573	5.67252	5.42531	4.72720	3.91865	3.31505	19.97729	13.88530	9.38257	33.13	6.1	0.00	-2.04	0.01732	0.01199	0.01517	0.01830	0.01893	0.01481	0.00544	0.01510	0.02005	0.01870	0.01299	0.01655	0.01704	0.01763	0.01377	0.00570	0.01606	0.02149
160	2.10077	1.94606	1.71722	8.32549	7.54778	6.91933	16.53785	10.38892	5.82143	5.78021	5.67798	5.42952	4.72694	3.91792	3.31396	19.98322	13.88580	9.38103
330	2.09641	1.94343	1.71504	8.32184	7.54632	6.91744	16.53439	10.39051	5.81743	5.77943	5.67742	5.43074	4.72524	3.91244	3.31015	19.97180	13.88179	9.37958
490	2.09473	1.94243	1.71421	8.32059	7.54727	6.91775	16.52438	10.38805	5.81742	5.78178	5.68078	5.43448	4.72610	3.91627	3.31079	19.97382	13.88564	9.38320
660	2.09571	1.94036	1.71267	8.32234	7.54657	6.91639	16.55580	10.38563	5.81455	5.78067	5.68001	5.43335	4.72458	3.91703	3.31321	19.97224	13.88819	9.38868
820	2.09574	1.94414	1.71360	8.32823	7.55055	6.92043	16.55023	10.38758	5.81786	5.78506	5.68457	5.43744	4.72509	3.91399	3.30835	19.98149	13.88728	9.38565
990	2.09676	1.94687	1.71666	8.33016	7.55407	6.92603	16.55927	10.39384	5.81983	5.78952	5.68889	5.44276	4.72841	3.91897	3.31540	19.99263	13.89411	9.39283
1150	2.09605	1.94340	1.71297	8.33138	7.55371	6.92419	16.52660	10.38572	5.81810	5.78832	5.68706	5.44223	4.72539	3.91592	3.31065	19.99466	13.89160	9.39136
1310	2.09419	1.94391	1.71185	8.33082	7.55368	6.92443	16.54243	10.38813	5.81599	5.78867	5.68718	5.44405	4.72306	3.91291	3.31240	19.98713	13.89322	9.39444
1480	2.09393	1.94336	1.71517	8.33374	7.55513	6.92657	16.54020	10.38467	5.81769	5.79085	5.69127	5.44644	4.72401	3.91591	3.30884	19.99871	13.89593	9.39541
1650	2.09555	1.94117	1.71145	8.33516	7.55680	6.92704	16.53585	10.38678	5.81314	5.78998	5.69132	5.44649	4.72459	3.91727	3.31340	20.00084	13.90443	9.40284	33.19	6.1	0.00	-2.04	0.01732	0.01199	0.01517	0.01830	0.01893	0.01481	0.00544	0.01510	0.02004	0.01870	0.01299	0.01655	0.01704	0.01762	0.01376	0.00570	0.01606	0.02150
1810	2.09649	1.94395	1.71628	8.34138	7.56358	6.93424	16.54291	10.39150	5.81764	5.79566	5.69752	5.45237	4.72412	3.91468	3.30855	20.00171	13.90130	9.40127
1970	2.09240	1.94458	1.71459	8.33865	7.56121	6.93122	16.54848	10.39041	5.81568	5.79486	5.69506	5.45300	4.72212	3.91221	3.30827	19.98622	13.89862	9.40010
2140	2.09452	1.94424	1.71475	8.34206	7.56633	6.93577	16.54056	10.39030	5.82070	5.79720	5.69826	5.45628	4.72238	3.91571	3.30916	19.99737	13.90300	9.40370
2300	2.09285	1.94138	1.71133	8.34216	7.56498	6.93390	16.55158	10.38452	5.81558	5.79648	5.69708	5.45583	4.72303	3.91508	3.31134	19.99867	13.90550	9.40794
2470	2.09490	1.94402	1.71477	8.34565	7.56821	6.93746	16.54563	10.38965	5.81600	5.79913	5.70035	5.45835	4.72644	3.91676	3.31525	19.99853	13.90986	9.41155
2630	2.09689	1.94517	1.71560	8.35110	7.57394	6.94231	16.56472	10.38962	5.81984	5.80278	5.70373	5.46197	4.72509	3.91718	3.31099	19.99592	13.90866	9.41038
2800	2.09420	1.94380	1.71320	8.34936	7.57236	6.94097	16.55666	10.38665	5.81586	5.80193	5.70328	5.46257	4.72279	3.91283	3.30824	19.99186	13.90535	9.41142
2960	2.09448	1.94179	1.71254	8.34985	7.57216	6.94131	16.55294	10.38242	5.81499	5.80197	5.70434	5.46290	4.72379	3.91843	3.31125	20.00447	13.91200	9.41462
3130	2.09687	1.94430	1.71508	8.35557	7.57838	6.94633	16.53833	10.39567	5.81927	5.80544	5.70796	5.46698	4.72538	3.91398	3.30832	20.00200	13.91101	9.41554
3290	2.09429	1.94326	1.71517	8.35605	7.57962	6.94952	16.53448	10.38593	5.81618	5.80708	5.71011	5.47000	4.72334	3.91249	3.30968	20.00804	13.91472	9.41803	33.19	6.2	0.00	-2.04	0.01732	0.01198	0.01517	0.01830	0.01894	0.01481	0.00544	0.01510	0.02004	0.01870	0.01299	0.01655	0.01704	0.01762	0.01376	0.00570	0.01607	0.02150
3450	2.09547	1.94097	1.71318	8.35686	7.57943	6.94708	16.55987	10.38678	5.81418	5.80561	5.70726	5.46779	4.72296	3.91516	3.30908	20.00282	13.91694	9.42054
3620	2.09594	1.94165	1.71427	8.36174	7.58261	6.95119	16.55665	10.38182	5.81460	5.80785	5.71053	5.47086	4.72168	3.91386	3.30925	20.00137	13.91292	9.41885
3780	2.09336	1.94038	1.71621	8.36030	7.58284	6.95219	16.53782	10.38857	5.81469	5.80824	5.71151	5.47222	4.72375	3.91230	3.30864	20.00572	13.91605	9.42216
3950	2.09414	1.94086	1.71385	8.36351	7.58564	6.95281	16.52916	10.38533	5.81536	5.80906	5.71148	5.47424	4.72146	3.91535	3.30830	20.01993	13.91848	9.42445
4110	2.09475	1.94287	1.71502	8.36453	7.58745	6.95583	16.53485	10.38817	5.81464	5.81041	5.71285	5.47524	4.72156	3.91127	3.30735	20.00905	13.91605	9.42300
4280	2.09587	1.94367	1.71561	8.36708	7.58942	6.95919	16.52360	10.38643	5.81517	5.81279	5.71457	5.47710	4.72373	3.91403	3.30581	20.00094	13.91767	9.42694
4440	2.09369	1.94105	1.71438	8.36730	7.58901	6.95820	16.53807	10.38687	5.81638	5.81181	5.71545	5.47788	4.72262	3.91551	3.31019	20.02095	13.92313	9.43044
4610	2.09606	1.94360	1.71649	8.37089	7.59423	6.96262	16.56198	10.38759	5.81699	5.81542	5.71771	5.47963	4.72280	3.91536	3.30824	20.00442	13.92499	9.43057
4770	2.09667	1.94506	1.71552	8.37307	7.59569	6.96408	16.53597	10.38475	5.81644	5.81671	5.71859	5.48188	4.72125	3.91541	3.30643	20.02371	13.92363	9.43186
4940	2.09594	1.94589	1.71373	8.37496	7.59709	6.96725	16.53932	10.38671	5.81892	5.81868	5.72125	5.48380	4.72167	3.91476	3.30666	20.02965	13.92661	9.43433	33.08	6.2	0.00	-2.04	0.01732	0.01198	0.01517	0.01830	0.01894	0.01481	0.00544	0.01510	0.02004	0.01870	0.01299	0.01655	0.01704	0.01762	0.01376	0.00570	0.01607	0.02150
5100	2.09397	1.94398	1.71391	8.37504	7.59600	6.96584	16.53078	10.38651	5.81253	5.81674	5.71784	5.48246	4.72201	3.91345	3.31232	20.02152	13.92941	9.43541
5270	2.09583	1.94257	1.71455	8.37778	7.60060	6.96963	16.54972	10.38588	5.81477	5.82072	5.72171	5.48609	4.72361	3.91479	3.30882	20.02617	13.92910	9.43731
5430	2.09629	1.94312	1.71458	8.37969	7.60176	6.97003	16.55294	10.38449	5.81465	5.81984	5.72197	5.48678	4.72414	3.91642	3.30923	20.02355	13.93224	9.43890
5600	2.09711	1.94225	1.71755	8.38246	7.60444	6.97228	16.57901	10.38423	5.81769	5.82269	5.72383	5.48843	4.72198	3.91086	3.30944	20.02341	13.93184	9.43849
5770	2.09435	1.94359	1.71640	8.38156	7.60579	6.97675	16.56957	10.38908	5.81805	5.82668	5.72919	5.49195	4.72422	3.91523	3.31012	20.03270	13.93629	9.44211
5930	2.09619	1.94246	1.71541	8.38563	7.60732	6.97585	16.53808	10.38566	5.81763	5.82362	5.72647	5.49052	4.72270	3.91311	3.30953	20.03372	13.93574	9.44193
6090	2.09445	1.94307	1.71430	8.38415	7.60778	6.97735	16.54638	10.38821	5.81429	5.82441	5.72569	5.49091	4.72192	3.91625	3.30733	20.02617	13.93820	9.44399
6260	2.09383	1.94413	1.71383	8.38608	7.61040	6.97956	16.53920	10.38221	5.81390	5.82663	5.72771	5.49263	4.72263	3.91199	3.30821	20.03358	13.93692	9.44246
6420	2.09655	1.94315	1.71466	8.38967	7.61357	6.98301	16.54948	10.38510	5.81566	5.82981	5.73065	5.49636	4.72376	3.91333	3.30904	20.03910	13.93831	9.44622
6590	2.09301	1.94181	1.71591	8.38853	7.61278	6.98229	16.52823	10.38215	5.81521	5.82770	5.72863	5.49399	4.72329	3.91687	3.31350	20.04051	13.94386	9.45016	33.19	6.1	0.00	-2.04	0.01732	0.01198	0.01517	0.01830	0.01894	0.01481	0.00544	0.01510	0.02004	0.01870	0.01299	0.01655	0.01704	0.01762	0.01376	0.00570	0.01607	0.02150
6760	2.09685	1.94567	1.71657	8.39343	7.61795	6.98632	16.55881	10.38783	5.81738	5.83121	5.73205	5.49724	4.72575	3.91372	3.30952	20.02932	13.94316	9.44831
6920	2.09452	1.94232	1.71548	8.39298	7.61866	6.98664	16.53516	10.38691	5.81551	5.83245	5.73313	5.49868	4.72156	3.91316	3.30976	20.03658	13.94114	9.44897
7090	2.09475	1.94493	1.71631	8.39569	7.62104	6.98991	16.53355	10.39009	5.81779	5.83550	5.73648	5.50142	4.72409	3.91513	3.31121	20.04429	13.94585	9.45211
7250	2.09599	1.94193	1.71561	8.39491	7.62051	6.98914	16.55857	10.38696	5.81549	5.83365	5.73465	5.49985	4.72351	3.91508	3.31444	20.04633	13.94960	9.45609
7420	2.09869	1.94490	1.71639	8.39958	7.62438	6.99433	16.55435	10.39291	5.81605	5.83724	5.73667	5.50199	4.72438	3.91553	3.30946	20.05812	13.94682	9.45348
7580	2.09424	1.94161	1.71511	8.39921	7.62448	6.99479	16.55510	10.38150	5.81532	5.83817	5.73764	5.50307	4.72400	3.91320	3.30692	20.04036	13.94871	9.45479
7740	2.09268	1.94132	1.71376	8.40287	7.63027	6.99828	16.55559	10.39166	5.81489	5.84088	5.74364	5.50659	4.72075	3.91062	3.30767	20.06162	13.95448	9.45925
7910	2.09298	1.93689	1.71026	8.40477	7.62926	6.99883	16.54642	10.37506	5.80251	5.84095	5.74264	5.50696	4.71242	3.90352	3.29608	20.05725	13.95655	9.46385
8070	2.08480	1.92993	1.70625	8.41138	7.63787	7.00831	16.52440	10.36202	5.79679	5.84676	5.75050	5.51364	4.70025	3.89281	3.28876	20.04793	13.96473	9.46880
8240	2.07812	1.92950	1.70365	8.41461	7.64362	7.01461	16.56134	10.36930	5.79689	5.85171	5.75505	5.51822	4.70667	3.89511	3.29278	20.06268	13.97086	9.47454	33.19	6.1	0.00	-2.04	0.01733	0.01199	0.01517	0.01829	0.01893	0.01481	0.00545	0.01511	0.02005	0.01869	0.01299	0.01655	0.01705	0.01763	0.01377	0.00570	0.01606	0.02149
8400	2.08154	1.92911	1.70059	8.42258	7.64731	7.01596	16.50523	10.36140	5.79099	5.85168	5.75541	5.51784	4.70005	3.89203	3.28997	20.07188	13.97188	9.47496
8570	2.07886	1.92705	1.69877	8.42314	7.64793	7.01645	16.53374	10.36345	5.79265	5.85261	5.75493	5.51830	4.70330	3.89853	3.29424	20.06137	13.97325	9.47741
8730	2.08332	1.93138	1.70445	8.42552	7.65134	7.01929	16.52151	10.36977	5.79737	5.85626	5.75884	5.51984	4.70318	3.89278	3.29329	20.06123	13.97617	9.47688
8900	2.07935	1.92973	1.70193	8.42459	7.65026	7.02000	16.52534	10.36419	5.79530	5.85692	5.75944	5.52061	4.70107	3.89595	3.29343	20.05379	13.97362	9.47658
9070	2.08127	1.93135	1.70556	8.42686	7.65377	7.02399	16.53572	10.36593	5.80338	5.86086	5.76137	5.52373	4.70820	3.89993	3.29489	20.07961	13.97790	9.48015
9230	2.08389	1.92901	1.70389	8.42611	7.65252	7.02308	16.51571	10.36425	5.79599	5.85961	5.76002	5.52241	4.70221	3.89576	3.28935	20.07246	13.97638	9.47943
9400	2.07947	1.92684	1.69942	8.42576	7.65165	7.02303	16.52707	10.36292	5.79480	5.85874	5.76019	5.52193	4.70272	3.89538	3.29267	20.07085	13.97885	9.48135
9560	2.07993	1.92837	1.70396	8.42741	7.65319	7.02601	16.51176	10.36579	5.79806	5.86247	5.76273	5.52475	4.70303	3.89500	3.29055	20.07421	13.97809	9.48085
9730	2.08053	1.93188	1.70511	8.43015	7.65674	7.02997	16.52954	10.36847	5.80182	5.86599	5.76580	5.52767	4.70663	3.89928	3.29242	20.07144	13.98182	9.48556
9890	2.08516	1.93247	1.70494	8.42755	7.65343	7.02710	16.52364	10.36607	5.79982	5.86254	5.76231	5.52485	4.71114	3.90315	3.30021	20.08905	13.98196	9.48432	33.19	6.1	0.00	-2.04	0.01734	0.01200	0.01518	0.01829	0.01893	0.01480	0.00545	0.01512	0.02006	0.01869	0.01299	0.01654	0.01705	0.01764	0.01378	0.00570	0.01606	0.02148
10050	2.08540	1.93543	1.70671	8.42863	7.65502	7.02672	16.51389	10.36738	5.80285	5.86495	5.76398	5.52501	4.70793	3.89832	3.29354	20.07648	13.97888	9.48197
10220	2.08254	1.92947	1.70369	8.42747	7.65421	7.02793	16.51192	10.37015	5.79920	5.86529	5.76470	5.52618	4.71110	3.89933	3.29759	20.07414	13.97917	9.48143
10380	2.08440	1.93203	1.70267	8.42656	7.65259	7.02777	16.51648	10.36540	5.79797	5.86385	5.76238	5.52414	4.70823	3.89793	3.29894	20.07151	13.98096	9.48350
10550	2.08542	1.93484	1.70568	8.42977	7.65639	7.03093	16.54117	10.37115	5.80352	5.86810	5.76631	5.52758	4.71091	3.90130	3.29979	20.07750	13.98233	9.48485
10710	2.08619	1.93492	1.70379	8.42937	7.65718	7.03143	16.50896	10.36776	5.80102	5.86899	5.76820	5.52848	4.70987	3.90200	3.29892	20.08320	13.98751	9.48704
10880	2.08489	1.93626	1.70829	8.43292	7.66037	7.03306	16.51636	10.37383	5.80297	5.87249	5.76941	5.53027	4.70893	3.90199	3.29861	20.07327	13.98430	9.48738
11050	2.08481	1.93703	1.70776	8.43195	7.66214	7.03688	16.52055	10.37620	5.80488	5.87643	5.77377	5.53316	4.71055	3.90664	3.29934	20.09227	13.99009	9.49072
11210	2.08727	1.93462	1.70657	8.43416	7.66178	7.03540	16.51451	10.37316	5.80376	5.87472	5.77260	5.53196	4.71084	3.90145	3.29730	20.07736	13.99012	9.48987
11380	2.08582	1.93277	1.70644	8.43320	7.66166	7.03521	16.49628	10.37057	5.79974	5.87557	5.77255	5.53124	4.71258	3.90468	3.29777	20.08203	13.99330	9.49353
11540	2.08762	1.93885	1.70769	8.43492	7.66144	7.03657	16.53448	10.37435	5.80687	5.87669	5.77336	5.53213	4.71180	3.90484	3.29972	20.08799	13.98988	9.48794	33.13	5.9	0.00	-2.04	0.01734	0.01200	0.01518	0.01829	0.01892	0.01480	0.00545	0.01512	0.02007	0.01869	0.01299	0.01654	0.01706	0.01764	0.01378	0.00570	0.01605	0.02148
11710	2.08762	1.93969	1.71261	8.43636	7.66434	7.04162	16.52868	10.37491	5.80970	5.88126	5.77752	5.53709	4.71719	3.90647	3.30297	20.08580	13.99222	9.49377
11870	2.08928	1.93653	1.70952	8.43726	7.66372	7.03981	16.52597	10.37585	5.80328	5.87940	5.77541	5.53547	4.71095	3.90426	3.29784	20.09223	13.99457	9.49263
12030	2.08662	1.93766	1.70943	8.43672	7.66420	7.03919	16.52720	10.37108	5.80443	5.88146	5.77639	5.53547	4.71287	3.90344	3.29906	20.10058	13.99673	9.49397
12200	2.08815	1.93710	1.70963	8.43779	7.66579	7.04190	16.50748	10.37487	5.80418	5.88267	5.77847	5.53666	4.71355	3.90434	3.29856	20.08682	13.99562	9.49361
12360	2.08968	1.93854	1.71018	8.43957	7.66789	7.04435	16.53399	10.37469	5.80557	5.88671	5.78040	5.53967	4.71432	3.90492	3.30020	20.10028	13.99797	9.49619
12530	2.08796	1.93813	1.70961	8.43929	7.66627	7.04363	16.52806	10.37246	5.80602	5.88511	5.78247	5.53836	4.71327	3.90596	3.30182	20.10263	14.00153	9.49962
12700	2.08979	1.93977	1.70996	8.44265	7.67002	7.04600	16.52042	10.37685	5.80579	5.88872	5.78327	5.54225	4.71362	3.90365	3.30030	20.08507	13.99726	9.49774
12860	2.09065	1.93855	1.71260	8.44410	7.67217	7.04930	16.53955	10.37960	5.81104	5.89260	5.78615	5.54391	4.71609	3.90668	3.30297	20.10043	14.00374	9.50269
13020	2.08902	1.93550	1.70972	8.44481	7.67151	7.04742	16.54437	10.37487	5.80310	5.88998	5.78563	5.54355	4.71181	3.90295	3.29701	20.09838	14.00229	9.49994
13190	2.08745	1.93917	1.71000	8.44127	7.66817	7.04564	16.55360	10.37313	5.80660	5.88951	5.78478	5.54153	4.71325	3.90732	3.30136	20.09980	14.00289	9.50057	33.13	6.1	0.00	-2.04	0.01734	0.01200	0.01518	0.01828	0.01892	0.01480	0.00545	0.01513	0.02008	0.01869	0.01298	0.01654	0.01706	0.01765	0.01378	0.00570	0.01605	0.02148
13350	2.08929	1.93868	1.71272	8.44362	7.67206	7.04839	16.53815	10.37317	5.80549	5.89139	5.78552	5.54482	4.71417	3.90897	3.30606	20.08370	14.00532	9.50338
13520	2.09272	1.94023	1.71390	8.44773	7.67435	7.04956	16.52901	10.37581	5.80975	5.89394	5.78891	5.54609	4.70962	3.90397	3.30016	20.09863	14.00366	9.50183
13680	2.08742	1.93942	1.71242	8.44608	7.67475	7.05139	16.54111	10.37978	5.81097	5.89720	5.79257	5.54956	4.71646	3.90834	3.30179	20.11461	14.00677	9.50663
13850	2.08908	1.94073	1.71136	8.44973	7.67540	7.05196	16.52211	10.37601	5.80724	5.89716	5.79056	5.54864	4.71680	3.90981	3.30596	20.11006	14.01160	9.51098
14010	2.09226	1.94006	1.71438	8.45389	7.68129	7.05628	16.51151	10.37920	5.80865	5.90050	5.79554	5.55179	4.71539	3.90652	3.30146	20.09658	14.01054	9.50775
14180	2.08916	1.93771	1.71010	8.45222	7.67686	7.05289	16.52371	10.37230	5.80584	5.90007	5.79491	5.55031	4.71394	3.90545	3.30211	20.11285	14.01004	9.50900
14340	2.08626	1.93635	1.70982	8.45036	7.67666	7.05251	16.50855	10.37429	5.80481	5.89921	5.79518	5.55034	4.71460	3.90857	3.30353	20.09600	14.01434	9.51537
14510	2.09060	1.93873	1.71204	8.45761	7.68327	7.05922	16.53210	10.37743	5.80855	5.90566	5.79980	5.55640	4.71588	3.90780	3.30150	20.10244	14.01495	9.51259
14670	2.08978	1.93774	1.71009	8.45709	7.68166	7.05717	16.54099	10.37364	5.80677	5.90326	5.79746	5.55391	4.71285	3.90413	3.30062	20.09980	14.00901	9.51049
14840	2.09051	1.94129	1.71202	8.45361	7.68056	7.05691	16.50230	10.37520	5.80988	5.90470	5.79926	5.55504	4.71516	3.90834	3.30177	20.11812	14.01403	9.51172	33.19	6.1	0.00	-2.04	0.01735	0.01200	0.01519	0.01828	0.01892	0.01480	0.00545	0.01513	0.02008	0.01868	0.01298	0.01654	0.01707	0.01765	0.01378	0.00570	0.01605	0.02148
15000	2.09089	1.93898	1.71341	8.45455	7.68071	7.05560	16.51006	10.37991	5.80987	5.90424	5.79958	5.55457	4.71563	3.90702	3.30520	20.10521	14.01329	9.51451
15170	2.09056	1.94071	1.71358	8.45896	7.68368	7.05862	16.52990	10.37486	5.81159	5.90819	5.80317	5.55640	4.71478	3.90646	3.30437	20.10213	14.01406	9.51379
15330	2.09105	1.94249	1.71484	8.46043	7.68709	7.06211	16.52139	10.38424	5.81270	5.91077	5.80589	5.56095	4.71775	3.90998	3.30627	20.10814	14.01665	9.51852
15500	2.09213	1.93844	1.71233	8.45977	7.68493	7.06004	16.52423	10.37317	5.80872	5.90863	5.80412	5.55941	4.71711	3.90971	3.30437	20.10404	14.02119	9.52172
15660	2.09223	1.94206	1.71278	8.46318	7.68883	7.06389	16.55287	10.37884	5.81115	5.91327	5.80791	5.56182	4.71667	3.90896	3.30532	20.10844	14.01958	9.51916
15830	2.09156	1.94007	1.71297	8.46155	7.68739	7.06442	16.51683	10.37977	5.81438	5.91436	5.80831	5.56333	4.71707	3.91006	3.30423	20.11709	14.02426	9.52285
15990	2.09282	1.94188	1.71218	8.46430	7.69048	7.06679	16.56426	10.38401	5.81225	5.91640	5.81124	5.56568	4.71969	3.90895	3.30602	20.11049	14.02201	9.52365
16160	2.09139	1.94265	1.71585	8.46472	7.69086	7.06687	16.50661	10.37645	5.81305	5.91880	5.81338	5.56776	4.71844	3.91212	3.30423	20.12781	14.02262	9.52453
16320	2.09218	1.93825	1.71296	8.46614	7.69060	7.06597	16.53397	10.37857	5.81041	5.91719	5.81249	5.56635	4.71853	3.91169	3.30827	20.11665	14.02658	9.52709
16490	2.09434	1.94385	1.71556	8.46865	7.69415	7.06886	16.54530	10.37527	5.81170	5.91959	5.81371	5.56834	4.72172	3.90777	3.30625	20.11941	14.02526	9.52659	33.13	6.0	0.00	-2.04	0.01735	0.01200	0.01519	0.01828	0.01892	0.01480	0.00545	0.01513	0.02008	0.01868	0.01298	0.01654	0.01707	0.01765	0.01379	0.00570	0.01605	0.02147
16650	2.08991	1.94357	1.71466	8.46772	7.69522	7.07012	16.54666	10.37300	5.81271	5.92196	5.81770	5.57139	4.71984	3.91153	3.30566	20.12557	14.02764	9.52766
16810	2.09354	1.94058	1.71377	8.46825	7.69351	7.07008	16.52259	10.37980	5.80951	5.92086	5.81583	5.56977	4.71902	3.90903	3.30477	20.12675	14.02955	9.52847
16980	2.09210	1.94152	1.71548	8.47086	7.69472	7.06990	16.55061	10.37461	5.80911	5.92245	5.81796	5.57130	4.71703	3.91223	3.30794	20.12499	14.02809	9.53017
17140	2.09255	1.94297	1.71296	8.47214	7.69698	7.07238	16.53073	10.38516	5.81493	5.92577	5.81960	5.57355	4.71974	3.91068	3.30622	20.11691	14.02939	9.53247
17310	2.09152	1.94066	1.71370	8.47288	7.69776	7.07162	16.53690	10.37873	5.81227	5.92622	5.82189	5.57409	4.72269	3.91075	3.30741	20.12983	14.03269	9.53367
17470	2.09240	1.94248	1.71622	8.47472	7.69849	7.07237	16.52740	10.37858	5.81323	5.92737	5.82258	5.57561	4.71897	3.91147	3.30305	20.12058	14.03317	9.53205
17640	2.09316	1.94514	1.71705	8.47723	7.70128	7.07641	16.54345	10.38842	5.81331	5.93011	5.82741	5.57898	4.72014	3.91361	3.30646	20.12469	14.03581	9.53657
17800	2.09260	1.94197	1.71485	8.47649	7.70020	7.07439	16.53221	10.37884	5.81136	5.92932	5.82538	5.57853	4.72256	3.91235	3.30819	20.13116	14.03756	9.53973
17970	2.09388	1.94374	1.71524	8.48055	7.70454	7.07738	16.51384	10.38170	5.81476	5.93270	5.82914	5.58071	4.72102	3.90878	3.30638	20.12807	14.03621	9.53819
18130	2.09160	1.93911	1.71437	8.47887	7.70280	7.07749	16.55213	10.37792	5.81212	5.93227	5.82818	5.57961	4.72001	3.90928	3.30471	20.12893	14.03572	9.53706	33.13	6.2	0.00	-2.04	0.01735	0.01200	0.01519	0.01828	0.01892	0.01480	0.00545	0.01513	0.02008	0.01868	0.01298	0.01654	0.01707	0.01765	0.01379	0.00570	0.01605	0.02147
18300	2.09286	1.93972	1.71480	8.47865	7.70127	7.07384	16.55077	10.37585	5.80836	5.93052	5.82700	5.57845	4.72234	3.91462	3.30990	20.12599	14.04160	9.54318
18460	2.09568	1.94566	1.71682	8.48492	7.70784	7.08216	16.54052	10.38366	5.81529	5.93698	5.83356	5.58548	4.72264	3.91289	3.30678	20.12937	14.03773	9.54103
18630	2.09413	1.94135	1.71547	8.48358	7.70716	7.08098	16.53398	10.38256	5.81335	5.93728	5.83468	5.58587	4.72107	3.91228	3.30906	20.13848	14.04147	9.54345
18790	2.09412	1.94414	1.71561	8.48480	7.70859	7.08224	16.52300	10.38752	5.81298	5.93807	5.83567	5.58623	4.71916	3.91035	3.30768	20.13172	14.03633	9.54286
18960	2.09284	1.94322	1.71540	8.48441	7.71088	7.08271	16.55238	10.37944	5.81299	5.94041	5.83901	5.58876	4.71945	3.91306	3.30627	20.14098	14.04287	9.54497
19120	2.09363	1.94232	1.71523	8.48612	7.70970	7.08287	16.51992	10.38426	5.81280	5.93998	5.83601	5.58792	4.72007	3.91315	3.30879	20.13025	14.04274	9.54695
19290	2.09382	1.94254	1.71459	8.48926	7.71307	7.08505	16.52892	10.38296	5.81104	5.94292	5.84002	5.59092	4.71964	3.90923	3.30721	20.13510	14.04118	9.54550
19450	2.09242	1.94167	1.71770	8.48721	7.71409	7.08711	16.51413	10.38520	5.81589	5.94586	5.84335	5.59347	4.72277	3.91342	3.31323	20.14172	14.04517	9.55006
19620	2.09383	1.94261	1.71564	8.49086	7.71348	7.08664	16.53435	10.37975	5.81290	5.94513	5.84229	5.59311	4.72191	3.91153	3.30811	20.13584	14.04584	9.54984
19780	2.09391	1.94212	1.71493	8.49071	7.71317	7.08619	16.54604	10.38051	5.81432	5.94487	5.84320	5.59382	4.72185	3.91245	3.31035	20.14200	14.04612	9.55215	33.13	6.1	0.00	-2.04	0.01735	0.01200	0.01519	0.01828	0.01892	0.01480	0.00546	0.01513	0.02008	0.01868	0.01298	0.01653	0.01707	0.01765	0.01379	0.00570	0.01605	0.02147
19950	2.09276	1.94398	1.71682	8.49239	7.71471	7.08734	16.52260	10.38036	5.81290	5.94735	5.84571	5.59587	4.72156	3.91302	3.30614	20.12686	14.04414	9.55172
20110	2.09424	1.94446	1.71710	8.49551	7.71739	7.09067	16.53419	10.37864	5.81580	5.94992	5.84764	5.59782	4.72277	3.91359	3.30835	20.14200	14.05020	9.55310
20280	2.09551	1.94205	1.71478	8.49401	7.71639	7.08844	16.52593	10.37828	5.81242	5.94827	5.84673	5.59598	4.72390	3.91342	3.30836	20.14391	14.05405	9.55773
20440	2.09720	1.94392	1.71737	8.49858	7.72056	7.09165	16.54753	10.38491	5.81471	5.95127	5.84953	5.59891	4.72288	3.91248	3.30986	20.15127	14.05304	9.55535
20610	2.09541	1.94424	1.71778	8.49756	7.71958	7.09126	16.55482	10.38141	5.81374	5.95112	5.84989	5.60088	4.72273	3.91368	3.30928	20.14950	14.05330	9.55599
20770	2.09545	1.94236	1.71659	8.49886	7.72117	7.09350	16.52519	10.38279	5.81330	5.95309	5.85301	5.60168	4.72053	3.91550	3.30881	20.13832	14.05298	9.55732
20940	2.09462	1.94465	1.71488	8.49967	7.72104	7.09251	16.56187	10.38431	5.81205	5.95366	5.85213	5.60302	4.72084	3.91255	3.31119	20.14847	14.05505	9.56132
21100	2.09468	1.94409	1.71770	8.50331	7.72541	7.09758	16.54469	10.38261	5.81651	5.95791	5.85696	5.60663	4.72176	3.91043	3.30761	20.13303	14.05524	9.56040
21270	2.09603	1.94612	1.71786	8.50638	7.72809	7.10153	16.52655	10.38435	5.81738	5.96089	5.85962	5.61046	4.72536	3.91513	3.30906	20.15333	14.06078	9.56387
21430	2.09577	1.94377	1.71682	8.50591	7.72734	7.09932	16.54391	10.38909	5.81405	5.95950	5.85819	5.60770	4.71925	3.91157	3.30645	20.14575	14.05782	9.56166	33.19	6.1	0.00	-2.04	0.01735	0.01200	0.01519	0.01828	0.01892	0.01480	0.00546	0.01513	0.02008	0.01868	0.01298	0.01653	0.01707	0.01766	0.01379	0.00569	0.01605	0.02147
21600	2.09284	1.94298	1.71558	8.50497	7.72672	7.09958	16.52689	10.38195	5.81353	5.96015	5.86035	5.61071	4.72271	3.91526	3.30632	20.15252	14.06172	9.56471
21760	2.09513	1.94479	1.71596	8.50683	7.72945	7.09946	16.54243	10.38264	5.81139	5.96095	5.86197	5.61100	4.71973	3.91144	3.30924	20.16623	14.06355	9.56651
21930	2.09482	1.94311	1.71533	8.50943	7.72978	7.10056	16.53392	10.37827	5.81366	5.96340	5.86140	5.61221	4.72052	3.91048	3.30888	20.14722	14.06108	9.56568
22090	2.09534	1.94355	1.71579	8.50919	7.73210	7.10308	16.53379	10.38461	5.81625	5.96408	5.86376	5.61552	4.72267	3.91169	3.30871	20.15621	14.06475	9.56874
22260	2.09284	1.94344	1.71595	8.51092	7.73098	7.10321	16.51050	10.38382	5.81121	5.96361	5.86464	5.61452	4.72235	3.91413	3.31001	20.15768	14.06984	9.57393
22420	2.09654	1.94512	1.71850	8.51539	7.73433	7.10641	16.53268	10.38175	5.81245	5.96712	5.86652	5.61650	4.72152	3.91216	3.30879	20.15842	14.06488	9.56971
22590	2.09358	1.94414	1.71490	8.51329	7.73482	7.10483	16.51444	10.38030	5.81341	5.96779	5.86802	5.61891	4.71913	3.91334	3.30729	20.15871	14.06591	9.57117
22750	2.09355	1.94337	1.71718	8.51532	7.73642	7.10722	16.52122	10.38536	5.81348	5.96956	5.87006	5.62104	4.72013	3.91231	3.30932	20.16136	14.06809	9.57286
22920	2.09294	1.94259	1.71584	8.51615	7.73550	7.10512	16.53749	10.38148	5.81237	5.96768	5.86856	5.62068	4.72229	3.91392	3.31199	20.17125	14.07314	9.57687
23080	2.09715	1.94627	1.71787	8.51967	7.73933	7.11017	16.54743	10.38317	5.81470	5.97175	5.87264	5.62270	4.72089	3.90993	3.30639	20.16459	14.07230	9.57405	33.19	5.9	0.00	-2.04	0.01735	0.01200	0.01519	0.01828	0.01892	0.01479	0.00546	0.01513	0.02008	0.01868	0.01298	0.01653	0.01707	0.01766	0.01379	0.00569	0.01605	0.02147
23250	2.09636	1.94644	1.71821	8.52107	7.74240	7.11392	16.51635	10.39367	5.81852	5.97532	5.87624	5.62663	4.72454	3.91433	3.30970	20.16474	14.07538	9.57882
23410	2.09493	1.94565	1.71617	8.52161	7.74141	7.11217	16.54644	10.38840	5.81261	5.97243	5.87360	5.62509	4.72165	3.91261	3.30785	20.17684	14.06821	9.57615
23570	2.09467	1.94208	1.71600	8.51879	7.74018	7.11114	16.53558	10.38413	5.81513	5.97345	5.87502	5.62527	4.72191	3.91361	3.30769	20.15501	14.07137	9.57783
23740	2.09594	1.94198	1.71482	8.52058	7.74208	7.11261	16.56301	10.37934	5.81201	5.97438	5.87588	5.62799	4.72018	3.91115	3.30640	20.16606	14.07604	9.57911
23900	2.09541	1.94205	1.71620	8.52070	7.74118	7.11120	16.54274	10.38728	5.81058	5.97369	5.87561	5.62707	4.71887	3.91127	3.30826	20.15781	14.07397	9.57922
24070	2.09480	1.94305	1.71520	8.52290	7.74383	7.11402	16.53471	10.38516	5.81538	5.97653	5.87923	5.62978	4.72096	3.91402	3.30973	20.18127	14.07838	9.58355
24240	2.09658	1.94404	1.71897	8.52808	7.74662	7.11674	16.53916	10.38351	5.81486	5.97945	5.88205	5.63253	4.72418	3.91666	3.31008	20.18599	14.08596	9.58926
24400	2.10008	1.94684	1.71773	8.53102	7.75050	7.12074	16.54805	10.38306	5.81643	5.98252	5.88533	5.63784	4.72402	3.91210	3.31091	20.18082	14.08168	9.58646
24570	2.09770	1.94451	1.71740	8.53104	7.74922	7.11949	16.54224	10.38043	5.81207	5.98145	5.88347	5.63375	4.72060	3.91027	3.30774	20.17654	14.08125	9.58334
24730	2.09218	1.94266	1.71845	8.52749	7.75011	7.11928	16.52632	10.38691	5.81651	5.98333	5.88514	5.63664	4.72430	3.91269	3.30725	20.17647	14.08064	9.58666	33.13	6.2	0.00	-2.04	0.01735	0.01200	0.01519	0.01828	0.01891	0.01479	0.00546	0.01513	0.02008	0.01868	0.01298	0.01653	0.01707	0.01766	0.01379	0.00569	0.01605	0.02147
24900	2.09485	1.94027	1.71393	8.53088	7.75003	7.11765	16.55966	10.38077	5.81266	5.98119	5.88331	5.63545	4.72227	3.91368	3.31131	20.16820	14.08460	9.58956
25060	2.09427	1.94512	1.71713	8.53231	7.75324	7.12135	16.52595	10.38350	5.81682	5.98376	5.88651	5.63759	4.72158	3.91302	3.30855	20.17204	14.08420	9.58645
25220	2.09577	1.94265	1.71741	8.53247	7.75441	7.12371	16.52669	10.39048	5.81557	5.98676	5.88930	5.64012	4.72219	3.91362	3.31053	20.17160	14.08340	9.58943
25390	2.09503	1.94141	1.71641	8.53223	7.75258	7.12158	16.53027	10.37910	5.80973	5.98369	5.88682	5.63875	4.72193	3.91440	3.30926	20.18932	14.08840	9.59314
25550	2.09571	1.94389	1.71568	8.53581	7.75610	7.12444	16.54459	10.38363	5.81162	5.98683	5.89076	5.64152	4.71998	3.91077	3.30648	20.17204	14.08539	9.59066
25720	2.09619	1.94572	1.71961	8.53758	7.75950	7.12790	16.55880	10.38546	5.81644	5.99071	5.89407	5.64582	4.72565	3.91526	3.31167	20.18193	14.09029	9.59508
25880	2.09667	1.94279	1.71591	8.53697	7.75684	7.12525	16.53348	10.38117	5.81329	5.98752	5.89303	5.64351	4.72367	3.91438	3.30934	20.18622	14.09165	9.59759
26050	2.09716	1.94416	1.71582	8.54024	7.76115	7.12803	16.52669	10.38084	5.81207	5.99180	5.89509	5.64647	4.71970	3.91415	3.30779	20.17662	14.08869	9.59413
26210	2.09562	1.94658	1.71809	8.54118	7.76234	7.13197	16.51844	10.38570	5.81612	5.99390	5.89822	5.64903	4.72479	3.91388	3.30988	20.18223	14.09242	9.59832
26380	2.09586	1.94307	1.71657	8.54148	7.76132	7.12907	16.53628	10.38104	5.81329	5.99146	5.89577	5.64796	4.72263	3.91338	3.30789	20.19473	14.09378	9.59837	33.13	6.1	0.00	-2.04	0.01735	0.01200	0.01519	0.01828	0.01891	0.01479	0.00546	0.01513	0.02008	0.01868	0.01298	0.01653	0.01707	0.01766	0.01379	0.00569	0.01605	0.02147
26540	2.09590	1.94408	1.71624	8.54216	7.76222	7.13069	16.57597	10.38753	5.81225	5.99268	5.89758	5.64981	4.72039	3.91212	3.30465	20.18394	14.09151	9.59716
26700	2.09370	1.94337	1.71643	8.54228	7.76477	7.13256	16.53677	10.38595	5.81301	5.99452	5.90042	5.65199	4.72185	3.91194	3.30551	20.18719	14.09250	9.59888
26870	2.09395	1.94042	1.71477	8.54242	7.76482	7.13140	16.51901	10.38358	5.80980	5.99415	5.89885	5.65095	4.72244	3.91635	3.31090	20.18527	14.09929	9.60522
27030	2.09691	1.94307	1.71925	8.54947	7.76936	7.13662	16.53381	10.39124	5.81641	5.99898	5.90352	5.65606	4.72295	3.91423	3.30916	20.19488	14.09841	9.60556
27200	2.09573	1.94306	1.71794	8.54850	7.76839	7.13531	16.54541	10.38749	5.81732	5.99830	5.90253	5.65626	4.72462	3.91333	3.30909	20.20050	14.09878	9.60279
27360	2.09335	1.94366	1.71647	8.54632	7.76626	7.13427	16.52863	10.38550	5.81127	5.99775	5.90172	5.65451	4.71860	3.91069	3.30500	20.20642	14.09476	9.59964
27520	2.09288	1.94308	1.71912	8.54435	7.77010	7.13834	16.56940	10.38601	5.81947	6.00235	5.90662	5.65914	4.72501	3.91645	3.31346	20.19591	14.09985	9.60763
27690	2.09523	1.94473	1.71581	8.55156	7.77022	7.13894	16.54615	10.37769	5.81502	6.00099	5.90565	5.65778	4.72343	3.91478	3.31008	20.19310	14.10158	9.60717
27850	2.09528	1.94406	1.71993	8.55176	7.77310	7.13950	16.54109	10.38242	5.81569	6.00139	5.90614	5.65969	4.72132	3.91336	3.30783	20.19089	14.09782	9.60563
28020	2.09184	1.94422	1.71582	8.55122	7.77250	7.14019	16.52455	10.37912	5.81159	6.00199	5.90618	5.66007	4.72094	3.91547	3.31002	20.20341	14.10064	9.60663	33.19	6.1	0.00	-2.04	0.01735	0.01200	0.01519	0.01828	0.01891	0.01479	0.00546	0.01513	0.02008	0.01868	0.01298	0.01653	0.01707	0.01766	0.01379	0.00569	0.01605	0.02147
28180	2.09650	1.94430	1.71572	8.55185	7.77215	7.13944	16.57026	10.38398	5.81400	6.00219	5.90801	5.66242	4.72116	3.91278	3.30766	20.19083	14.09896	9.60651
28350	2.09606	1.94758	1.71802	8.55473	7.77703	7.14535	16.55207	10.38996	5.81758	6.00614	5.91251	5.66497	4.72552	3.91414	3.30967	20.19157	14.10451	9.61108
28510	2.09509	1.94410	1.71640	8.55406	7.77481	7.14319	16.53849	10.38900	5.81142	6.00374	5.91025	5.66383	4.72138	3.91627	3.31304	20.20104	14.11032	9.61488
28670	2.09836	1.94489	1.71870	8.55806	7.77901	7.14645	16.54713	10.38947	5.81732	6.00670	5.91268	5.66618	4.72323	3.91338	3.30887	20.19335	14.10642	9.61261
28840	2.09664	1.94826	1.71956	8.55812	7.77980	7.14821	16.53404	10.39028	5.81685	6.00881	5.91469	5.66858	4.72647	3.91533	3.30801	20.19394	14.10810	9.61479
29000	2.09630	1.94430	1.71736	8.55712	7.77735	7.14535	16.54775	10.38916	5.81490	6.00639	5.91106	5.66671	4.72320	3.91320	3.30713	20.20830	14.10728	9.61360
29160	2.09385	1.94365	1.71542	8.55685	7.77730	7.14540	16.55479	10.38164	5.81254	6.00670	5.91278	5.66765	4.72004	3.91299	3.30827	20.20711	14.10688	9.61127
29330	2.09446	1.94180	1.71473	8.55523	7.77607	7.14430	16.51481	10.38429	5.81301	6.00586	5.91173	5.66717	4.72155	3.91384	3.30848	20.20459	14.11010	9.61497
29490	2.09654	1.94430	1.71712	8.55874	7.78043	7.14781	16.53145	10.38327	5.81351	6.00964	5.91557	5.66966	4.71965	3.91558	3.30632	20.18862	14.10968	9.61307
29660	2.09568	1.94528	1.72059	8.56098	7.78306	7.15164	16.53408	10.39156	5.81636	6.01247	5.91877	5.67341	4.72499	3.91624	3.30881	20.20658	14.11497	9.61719	33.13	6.1	0.00	-2.04	0.01735	0.01200	0.01519	0.01828	0.01891	0.01479	0.00546	0.01513	0.02008	0.01868	0.01298	0.01653	0.01707	0.01766	0.01379	0.00569	0.01605	0.02147
29820	2.09438	1.94357	1.71583	8.56016	7.78269	7.14868	16.51362	10.38823	5.81310	6.00972	5.91621	5.67181	4.72278	3.91585	3.31011	20.20362	14.11099	9.61847
29990	2.09525	1.94616	1.71745	8.56294	7.78395	7.15214	16.54964	10.38238	5.81545	6.01276	5.91955	5.67452	4.72254	3.91598	3.31186	20.21888	14.11601	9.62162
30150	2.09705	1.94577	1.72072	8.56644	7.78706	7.15655	16.53433	10.38334	5.81751	6.01614	5.92280	5.67747	4.72448	3.91471	3.31254	20.21517	14.11785	9.62140
30320	2.09601	1.94513	1.71841	8.56473	7.78736	7.15582	16.52212	10.38803	5.81784	6.01680	5.92247	5.67900	4.72466	3.91422	3.30883	20.21873	14.11694	9.62284
30480	2.09429	1.94225	1.71686	8.56467	7.78541	7.15299	16.52163	10.38600	5.81294	6.01390	5.92146	5.67572	4.72456	3.91520	3.30984	20.22466	14.11630	9.62098
30640	2.09413	1.94430	1.71486	8.56563	7.78599	7.15532	16.56423	10.38303	5.81416	6.01449	5.92162	5.67771	4.72219	3.91060	3.31051	20.21532	14.11726	9.62154
30810	2.09449	1.94478	1.71564	8.56566	7.78582	7.15419	16.55842	10.38272	5.81196	6.01537	5.92213	5.67842	4.72466	3.91751	3.31321	20.21888	14.12169	9.62544
30970	2.09884	1.94792	1.71962	8.57051	7.79060	7.15810	16.55867	10.38546	5.81853	6.01742	5.92529	5.68209	4.72436	3.91448	3.30753	20.21043	14.12124	9.62387
31140	2.09803	1.94583	1.71661	8.57024	7.79077	7.15849	16.52878	10.39196	5.81887	6.01802	5.92557	5.68239	4.72407	3.91472	3.30728	20.21132	14.11948	9.62463
31300	2.09460	1.94214	1.71577	8.56769	7.78850	7.15642	16.54093	10.38328	5.81420	6.01634	5.92456	5.68020	4.72107	3.91307	3.30756	20.20564	14.11841	9.62294	33.13	5.9	0.00	-2.04	0.01735	0.01200	0.01519	0.01828	0.01891	0.01479	0.00545	0.01513	0.02008	0.01868	0.01298	0.01653	0.01707	0.01766	0.01379	0.00569	0.01605	0.02147
31460	2.09598	1.94412	1.71928	8.57148	7.79376	7.16257	16.57197	10.39645	5.81775	6.02224	5.93014	5.68542	4.72394	3.91515	3.30898	20.22669	14.12516	9.62824
31630	2.09717	1.94377	1.71953	8.57117	7.79297	7.15990	16.53550	10.38700	5.81256	6.01904	5.92723	5.68418	4.72501	3.91434	3.31058	20.22980	14.12658	9.62926
31790	2.09637	1.94451	1.71640	8.57234	7.79308	7.16287	16.55947	10.38787	5.81310	6.02041	5.92915	5.68290	4.72324	3.91439	3.30780	20.20934	14.12049	9.62519
31960	2.09330	1.94275	1.71449	8.56935	7.78911	7.15801	16.57643	10.38372	5.81034	6.01711	5.92603	5.68277	4.72327	3.91605	3.31022	20.22164	14.12786	9.63090
32120	2.09977	1.94697	1.71983	8.57551	7.79533	7.16425	16.59292	10.38888	5.81546	6.02246	5.93086	5.68797	4.72495	3.91543	3.31102	20.22446	14.12559	9.62915
32280	2.09712	1.94604	1.71903	8.57614	7.79732	7.16659	16.54785	10.39560	5.82016	6.02485	5.93418	5.68977	4.72465	3.91663	3.31075	20.23188	14.12874	9.63103
32450	2.09610	1.94591	1.71775	8.57429	7.79503	7.16387	16.55093	10.38609	5.81528	6.02236	5.93119	5.68804	4.72415	3.91569	3.31013	20.22609	14.12893	9.63169
32610	2.09763	1.94529	1.71865	8.57666	7.79683	7.16496	16.54587	10.38493	5.81604	6.02319	5.93326	5.69009	4.72202	3.91271	3.30839	20.21660	14.12476	9.62991
32780	2.09501	1.94449	1.71705	8.57576	7.79835	7.16664	16.56739	10.38763	5.82024	6.02554	5.93355	5.69185	4.72397	3.91534	3.30828	20.20934	14.12612	9.62994
32940	2.09539	1.94570	1.71820	8.57747	7.79894	7.16822	16.55307	10.38760	5.81691	6.02501	5.93485	5.69165	4.72225	3.91404	3.30875	20.22095	14.12831	9.63199	33.19	6.1	0.00	-2.04	0.01735	0.01200	0.01519	0.01828	0.01891	0.01479	0.00545	0.01513	0.02008	0.01868	0.01298	0.01653	0.01707	0.01766	0.01379	0.00569	0.01605	0.02147
33110	2.09384	1.94460	1.71797	8.57858	7.80054	7.16915	16.53948	10.38964	5.81460	6.02664	5.93531	5.69385	4.72305	3.91633	3.31058	20.22198	14.13245	9.63563
33270	2.09776	1.94507	1.71939	8.58039	7.80195	7.17109	16.56296	10.39037	5.81967	6.02827	5.93940	5.69481	4.72592	3.91693	3.31237	20.22836	14.13183	9.63495
33440	2.09497	1.94568	1.71985	8.57928	7.80241	7.17268	16.55059	10.38921	5.81803	6.02958	5.93905	5.69650	4.72510	3.91812	3.31250	20.23430	14.13322	9.63546
33600	2.09472	1.94367	1.71922	8.57953	7.80121	7.16932	16.54837	10.37997	5.81388	6.02727	5.93683	5.69463	4.72549	3.91654	3.31315	20.23297	14.13571	9.63706
33770	2.09889	1.94828	1.71897	8.58263	7.80388	7.17174	16.52961	10.39252	5.81804	6.02961	5.93858	5.69645	4.72298	3.91703	3.31156	20.22658	14.13156	9.63440
33930	2.09753	1.94674	1.71780	8.58057	7.80305	7.17289	16.55443	10.38903	5.81994	6.03026	5.94055	5.69839	4.72520	3.91656	3.31066	20.23222	14.13210	9.63710
34090	2.09759	1.94665	1.71885	8.58140	7.80189	7.17122	16.54158	10.38852	5.81519	6.02828	5.93825	5.69705	4.72555	3.91695	3.31323	20.23104	14.13670	9.63875
34260	2.09722	1.94726	1.71895	8.58415	7.80571	7.17437	16.56259	10.37979	5.81714	6.03116	5.94077	5.69879	4.72475	3.91320	3.30728	20.22955	14.13271	9.63682
34420	2.09522	1.94631	1.71975	8.58636	7.80988	7.17695	16.53035	10.39156	5.82056	6.03331	5.94273	5.70226	4.72476	3.91416	3.31193	20.24024	14.13595	9.63904
34590	2.09663	1.94386	1.71766	8.58464	7.80577	7.17410	16.55813	10.38441	5.81602	6.03033	5.93935	5.69858	4.72590	3.91718	3.31314	20.24289	14.13805	9.64458	33.13	6.1	0.00	-2.04	0.01735	0.01200	0.01519	0.01828	0.01891	0.01479	0.00545	0.01513	0.02008	0.01868	0.01297	0.01653	0.01707	0.01766	0.01379	0.00569	0.01605	0.02147
34750	2.09904	1.94624	1.72093	8.58917	7.81119	7.17856	16.55282	10.38766	5.82027	6.03459	5.94401	5.70347	4.72278	3.91524	3.31008	20.23442	14.13952	9.64153
34920	2.09689	1.94781	1.72206	8.58800	7.80898	7.17725	16.57633	10.38876	5.81931	6.03360	5.94385	5.70323	4.72438	3.91660	3.31076	20.23071	14.13634	9.64103
35090	2.09677	1.94664	1.72174	8.58929	7.81226	7.18034	16.55208	10.39269	5.81867	6.03544	5.94515	5.70564	4.72423	3.91784	3.31146	20.23116	14.13838	9.64235
35250	2.09768	1.94503	1.71921	8.58841	7.81011	7.17748	16.54911	10.38331	5.81654	6.03424	5.94426	5.70427	4.72645	3.91928	3.31554	20.22804	14.14086	9.64659
35420	2.09845	1.94792	1.72073	8.59325	7.81445	7.18297	16.52788	10.38994	5.81589	6.03794	5.94856	5.70694	4.72544	3.91561	3.31201	20.23635	14.14142	9.64509
35580	2.09528	1.94565	1.71964	8.59301	7.81513	7.18344	16.55950	10.38771	5.81872	6.03852	5.94824	5.70958	4.72588	3.91613	3.31257	20.22834	14.13880	9.64514
35750	2.09766	1.94687	1.72180	8.59399	7.81611	7.18605	16.52430	10.38967	5.82061	6.04009	5.95137	5.70990	4.72575	3.91643	3.31184	20.23264	14.14279	9.64656
35910	2.09591	1.94500	1.71706	8.59254	7.81403	7.18356	16.53639	10.38637	5.81789	6.03799	5.94726	5.70750	4.72449	3.91608	3.31087	20.22700	14.14306	9.64738
36080	2.09703	1.94689	1.72105	8.59482	7.81712	7.18596	16.53071	10.38798	5.81847	6.04025	5.95053	5.71157	4.72707	3.91813	3.31292	20.24259	14.14260	9.64873
36240	2.09844	1.94639	1.72105	8.59534	7.81798	7.18482	16.52801	10.38432	5.81649	6.03999	5.95045	5.71067	4.72607	3.91795	3.31429	20.23954	14.14619	9.65175	33.13	6.1	0.00	-2.04	0.01735	0.01200	0.01519	0.01828	0.01891	0.01479	0.00545	0.01513	0.02008	0.01868	0.01297	0.01653	0.01707	0.01766	0.01379	0.00569	0.01605	0.02147
36410	2.10014	1.94864	1.72049	8.59875	7.82039	7.18786	16.54752	10.38780	5.81737	6.04311	5.95410	5.71333	4.72610	3.91780	3.31133	20.24341	14.14525	9.64979
36570	2.09728	1.94674	1.71798	8.59586	7.81908	7.18771	16.54616	10.38831	5.81911	6.04200	5.95295	5.71204	4.72408	3.91542	3.31163	20.22574	14.14402	9.64813
36740	2.09724	1.94748	1.72080	8.59720	7.82070	7.18922	16.52999	10.38608	5.82101	6.04464	5.95501	5.71396	4.72652	3.91595	3.31153	20.23167	14.14841	9.65071
36900	2.09663	1.94562	1.71823	8.59660	7.82010	7.18694	16.55778	10.38559	5.81523	6.04264	5.95181	5.71341	4.72523	3.91916	3.31462	20.25099	14.15122	9.65475
37070	2.09881	1.94926	1.72240	8.60130	7.82322	7.19155	16.57090	10.38691	5.82246	6.04476	5.95581	5.71544	4.72471	3.91424	3.31274	20.24147	14.14739	9.65263
37230	2.09725	1.94572	1.72173	8.60025	7.82245	7.19072	16.55073	10.38767	5.81791	6.04549	5.95738	5.71732	4.72306	3.91590	3.31019	20.24623	14.14758	9.65193
37400	2.09883	1.94838	1.72339	8.60177	7.82549	7.19259	16.53480	10.38872	5.81914	6.04765	5.95943	5.71920	4.72798	3.91851	3.31052	20.24623	14.15028	9.65458
37560	2.09857	1.94561	1.71972	8.60083	7.82396	7.19148	16.55246	10.38242	5.81502	6.04552	5.95641	5.71663	4.72567	3.91983	3.31625	20.24876	14.15293	9.65763
37730	2.09816	1.95010	1.72065	8.60434	7.82635	7.19380	16.53764	10.38894	5.81994	6.04869	5.95933	5.71929	4.72687	3.91646	3.31346	20.24385	14.15229	9.65557
37890	2.09836	1.94671	1.72013	8.60251	7.82535	7.19378	16.52965	10.38423	5.81714	6.04712	5.95843	5.71887	4.72598	3.91689	3.31132	20.24775	14.14817	9.65603	33.19	6.1	0.00	-2.04	0.01735	0.01200	0.01519	0.01828	0.01891	0.01479	0.00545	0.01513	0.02008	0.01868	0.01297	0.01653	0.01707	0.01766	0.01379	0.00569	0.01605	0.02147
38060	2.09603	1.94648	1.72204	8.60398	7.82618	7.19515	16.53964	10.39245	5.81802	6.04893	5.96080	5.72067	4.72498	3.91701	3.31347	20.24566	14.15175	9.65637
38220	2.09917	1.94772	1.72001	8.60361	7.82697	7.19585	16.54014	10.38236	5.81911	6.04892	5.96016	5.72156	4.72493	3.91928	3.30936	20.24403	14.15398	9.65809
38390	2.09801	1.95001	1.72193	8.60680	7.82900	7.19643	16.54693	10.38769	5.82079	6.05125	5.96248	5.72138	4.73118	3.92017	3.31589	20.24983	14.15893	9.66108
38550	2.10106	1.94883	1.72285	8.61036	7.83162	7.20028	16.54150	10.39269	5.82143	6.05404	5.96495	5.72614	4.72928	3.91966	3.31413	20.24700	14.15708	9.66121
38720	2.09703	1.94589	1.72096	8.60809	7.83024	7.19813	16.53940	10.38517	5.81488	6.05182	5.96242	5.72358	4.72544	3.91692	3.31055	20.25087	14.15732	9.65892
38880	2.09656	1.94675	1.71843	8.60699	7.82948	7.19760	16.52003	10.38461	5.81629	6.05074	5.96232	5.72439	4.72403	3.92012	3.31207	20.25057	14.16070	9.66414
39050	2.10157	1.94652	1.72093	8.61223	7.83410	7.20286	16.53471	10.39079	5.81869	6.05494	5.96608	5.72632	4.72621	3.91538	3.31041	20.24225	14.15981	9.66303
39210	2.09533	1.94739	1.72105	8.60814	7.83367	7.20172	16.56783	10.39142	5.81959	6.05544	5.96679	5.72808	4.72509	3.91663	3.31071	20.26024	14.15987	9.66233
39370	2.09772	1.94699	1.71933	8.60924	7.83226	7.19982	16.53458	10.38338	5.81504	6.05343	5.96417	5.72519	4.72686	3.91755	3.31400	20.25890	14.16086	9.66348
39540	2.09695	1.94581	1.72092	8.61052	7.83312	7.20264	16.52493	10.38109	5.81593	6.05462	5.96618	5.72694	4.72504	3.91489	3.31083	20.24718	14.15599	9.66174	33.19	6.0	0.00	-2.04	0.01735	0.01200	0.01519	0.01827	0.01891	0.01479	0.00545	0.01513	0.02008	0.01868	0.01297	0.01653	0.01707	0.01766	0.01379	0.00569	0.01605	0.02147
39700	2.09490	1.94564	1.71917	8.61067	7.83447	7.20280	16.54653	10.39176	5.81916	6.05645	5.96787	5.72902	4.72535	3.91666	3.31173	20.25313	14.16228	9.66402
39870	2.09590	1.94447	1.72012	8.61141	7.83285	7.20176	16.54604	10.38281	5.81503	6.05506	5.96551	5.72770	4.72603	3.91863	3.31548	20.26459	14.16317	9.66588
40030	2.09839	1.94809	1.72177	8.61400	7.83631	7.20624	16.55432	10.38497	5.81813	6.05751	5.96844	5.73096	4.72367	3.91569	3.31220	20.25462	14.16065	9.66545
40200	2.09729	1.94670	1.72264	8.61478	7.83850	7.20755	16.56879	10.39069	5.82473	6.06027	5.97161	5.73356	4.72779	3.91776	3.31308	20.25581	14.16566	9.66867
40360	2.09672	1.94678	1.71931	8.61387	7.83621	7.20688	16.52087	10.38522	5.81595	6.05712	5.97023	5.72991	4.72423	3.91876	3.31443	20.25581	14.16850	9.67073
40530	2.09814	1.94852	1.72045	8.61737	7.84003	7.20872	16.55358	10.38962	5.81687	6.06032	5.97150	5.73358	4.72538	3.91625	3.30948	20.26057	14.16303	9.66822
40690	2.09773	1.94707	1.72163	8.61720	7.84082	7.21194	16.54073	10.39303	5.82046	6.06332	5.97492	5.73682	4.72994	3.91765	3.31330	20.25968	14.16818	9.67254
40850	2.09891	1.94610	1.71966	8.61656	7.83972	7.20888	16.52247	10.38553	5.81547	6.06129	5.97303	5.73521	4.72518	3.91427	3.30959	20.26281	14.16622	9.67046
41020	2.09563	1.94432	1.71858	8.61767	7.83878	7.20826	16.54752	10.38712	5.81572	6.06047	5.97244	5.73422	4.72295	3.91242	3.30975	20.25432	14.16419	9.66769
41180	2.09480	1.94012	1.71635	8.61491	7.83649	7.20726	16.53654	10.38510	5.81431	6.05821	5.96947	5.73388	4.72617	3.91599	3.31197	20.25653	14.16747	9.67157	33.08	6.1	0.00	-2.04	0.01735	0.01200	0.01519	0.01827	0.01891	0.01479	0.00546	0.01513	0.02008	0.01868	0.01297	0.01653	0.01707	0.01766	0.01379	0.00569	0.01605	0.02147
41350	2.09766	1.94658	1.71950	8.61775	7.84093	7.20925	16.52396	10.39095	5.81727	6.06195	5.97368	5.73659	4.72711	3.91741	3.31270	20.25519	14.16798	9.67253
41510	2.09885	1.94678	1.72150	8.61925	7.84258	7.21103	16.54703	10.38476	5.81812	6.06274	5.97447	5.73726	4.72793	3.91971	3.31159	20.25624	14.16696	9.67049
41680	2.09596	1.94642	1.72020	8.61761	7.84254	7.21258	16.53814	10.39182	5.81921	6.06444	5.97557	5.73851	4.72653	3.91555	3.31219	20.26964	14.16726	9.67229
41840	2.09508	1.94389	1.71967	8.61882	7.84041	7.21098	16.53493	10.38391	5.81504	6.06234	5.97447	5.73698	4.72464	3.91463	3.31074	20.26100	14.17268	9.67349
42010	2.09942	1.94633	1.71943	8.61949	7.84304	7.21312	16.56620	10.38842	5.81653	6.06369	5.97630	5.73895	4.72422	3.91493	3.30966	20.27649	14.16758	9.67122
42170	2.09494	1.94699	1.71956	8.61959	7.84389	7.21411	16.55432	10.39079	5.81472	6.06479	5.97666	5.73960	4.72424	3.91548	3.31145	20.26517	14.17168	9.67491
42330	2.09595	1.94547	1.71984	8.62039	7.84431	7.21268	16.53937	10.38880	5.81714	6.06478	5.97750	5.73931	4.72515	3.91704	3.31063	20.26949	14.17166	9.67650
42500	2.09610	1.94766	1.72058	8.62214	7.84630	7.21420	16.53370	10.38378	5.81722	6.06580	5.97784	5.74186	4.72522	3.91669	3.31120	20.26710	14.16844	9.67528
42660	2.09906	1.94854	1.72261	8.62283	7.84665	7.21670	16.55135	10.39110	5.81854	6.06842	5.97997	5.74294	4.72534	3.91741	3.31200	20.26398	14.17203	9.67499
42830	2.09773	1.94486	1.71929	8.62172	7.84397	7.21403	16.53502	10.38346	5.81586	6.06456	5.97667	5.74036	4.72608	3.92041	3.31739	20.28819	14.17650	9.68064	33.19	6.1	0.00	-2.04	0.01735	0.01200	0.01519	0.01827	0.01891	0.01479	0.00546	0.01513	0.02008	0.01868	0.01297	0.01653	0.01707	0.01766	0.01379	0.00570	0.01605	0.02147
43000	2.09914	1.94895	1.72169	8.62603	7.84872	7.21733	16.56096	10.39337	5.81939	6.06810	5.98075	5.74382	4.72512	3.91544	3.31492	20.28207	14.17330	9.67734
43160	2.09939	1.94800	1.71905	8.62351	7.84619	7.21628	16.54267	10.38649	5.81795	6.06690	5.97932	5.74304	4.72501	3.91586	3.31169	20.27536	14.17201	9.67501
43330	2.09810	1.94907	1.72186	8.62524	7.84911	7.21862	16.53921	10.38944	5.81852	6.06934	5.98147	5.74562	4.72646	3.91752	3.31192	20.27908	14.17429	9.67803
43490	2.09688	1.94589	1.72072	8.62296	7.84601	7.21403	16.55515	10.38527	5.81385	6.06724	5.98033	5.74313	4.72662	3.91580	3.31308	20.27193	14.17550	9.68168
43660	2.09873	1.94741	1.72257	8.62607	7.84998	7.21907	16.55552	10.38730	5.81859	6.07045	5.98231	5.74553	4.73071	3.91758	3.31051	20.28013	14.17660	9.67963
43820	2.09831	1.94712	1.72099	8.62661	7.85022	7.21934	16.56876	10.39203	5.81879	6.07049	5.98229	5.74599	4.72469	3.91452	3.31029	20.27625	14.17507	9.67949
43990	2.09831	1.94857	1.72141	8.62789	7.85166	7.22079	16.54032	10.39453	5.81827	6.07239	5.98550	5.74908	4.72614	3.91568	3.31386	20.27938	14.17623	9.68037
44150	2.09869	1.94577	1.71942	8.62597	7.84968	7.21990	16.52219	10.38163	5.81484	6.07074	5.98180	5.74576	4.72355	3.91665	3.31219	20.26790	14.17690	9.68151
44320	2.09692	1.94699	1.72121	8.62859	7.85297	7.22226	16.54119	10.38848	5.81860	6.07292	5.98553	5.74871	4.72658	3.91734	3.31148	20.27193	14.17910	9.68229
44480	2.09802	1.94638	1.72168	8.62926	7.85177	7.22304	16.55914	10.39181	5.81786	6.07217	5.98425	5.74807	4.72743	3.91813	3.31438	20.27614	14.18072	9.68461	33.08	6.1	0.00	-2.04	0.01735	0.01200	0.01519	0.01827	0.01891	0.01479	0.00546	0.01513	0.02008	0.01867	0.01297	0.01652	0.01707	0.01765	0.01379	0.00569	0.01605	0.02147
44650	2.09844	1.95123	1.72351	8.63117	7.85405	7.22363	16.51164	10.38715	5.81789	6.07279	5.98563	5.74976	4.72526	3.91699	3.31394	20.27927	14.18115	9.68477
44810	2.09830	1.94707	1.72001	8.63067	7.85329	7.22314	16.54790	10.38476	5.81641	6.07379	5.98572	5.75004	4.72400	3.91718	3.31216	20.27971	14.17857	9.68346
44980	2.09782	1.94606	1.72161	8.63255	7.85465	7.22491	16.54036	10.39313	5.81852	6.07608	5.98818	5.75255	4.72689	3.91679	3.31148	20.27867	14.18091	9.68541
45140	2.09551	1.94382	1.71901	8.62946	7.85264	7.22246	16.51410	10.38335	5.81458	6.07335	5.98572	5.74997	4.72438	3.91812	3.31426	20.27778	14.18416	9.68862
45310	2.10064	1.94748	1.71973	8.63403	7.85610	7.22664	16.55679	10.38429	5.81653	6.07530	5.98757	5.75310	4.72473	3.91701	3.31407	20.26704	14.17900	9.68548
45470	2.09761	1.94702	1.72150	8.63247	7.85590	7.22604	16.52506	10.38503	5.81837	6.07610	5.98893	5.75352	4.72258	3.91678	3.31039	20.26287	14.18110	9.68595
45640	2.09775	1.94698	1.72376	8.63434	7.85869	7.22910	16.56323	10.39548	5.82049	6.07972	5.99045	5.75562	4.72630	3.91661	3.31197	20.26853	14.18402	9.68949
45800	2.09985	1.94572	1.71964	8.63262	7.85564	7.22689	16.54295	10.38826	5.81787	6.07632	5.98866	5.75366	4.72690	3.91951	3.31285	20.28404	14.18660	9.69081
45970	2.10001	1.94638	1.72014	8.63626	7.85948	7.22950	16.52889	10.38616	5.82045	6.07956	5.99112	5.75517	4.72545	3.91689	3.31104	20.28061	14.18316	9.68753
46130	2.09481	1.94685	1.71866	8.63501	7.85816	7.22950	16.54348	10.38269	5.81469	6.07744	5.99007	5.75528	4.72458	3.91615	3.31051	20.27798	14.18147	9.68777	33.13	6.1	0.00	-2.04	0.01735	0.01200	0.01519	0.01827	0.01891	0.01479	0.00546	0.01513	0.02008	0.01868	0.01297	0.01652	0.01707	0.01765	0.01379	0.00570	0.01605	0.02147
46300	2.09712	1.94434	1.72188	8.63538	7.85875	7.23073	16.53657	10.38486	5.81640	6.07888	5.99198	5.75633	4.72409	3.91562	3.30888	20.27575	14.18413	9.68835
46460	2.09416	1.94567	1.71963	8.63558	7.85960	7.23117	16.55077	10.38437	5.81642	6.08018	5.99337	5.75678	4.72449	3.91458	3.31160	20.27918	14.18644	9.68932
46630	2.09635	1.94521	1.72048	8.63688	7.85971	7.23080	16.53496	10.38332	5.81810	6.08079	5.99373	5.75869	4.72324	3.91728	3.31228	20.28559	14.18805	9.69179
46790	2.09799	1.94880	1.72132	8.63798	7.86207	7.23381	16.51659	10.38903	5.81704	6.08188	5.99547	5.76037	4.72421	3.91493	3.30822	20.28156	14.18673	9.69127
46960	2.09504	1.94715	1.72070	8.63671	7.86269	7.23413	16.52756	10.38680	5.81815	6.08414	5.99754	5.76087	4.72633	3.91431	3.30903	20.28335	14.18585	9.69324
47120	2.09618	1.94508	1.71987	8.63842	7.86146	7.23285	16.54410	10.38470	5.81773	6.08208	5.99480	5.75791	4.72301	3.91788	3.31006	20.28365	14.19087	9.69454
47290	2.10005	1.94485	1.72315	8.64032	7.86486	7.23426	16.51080	10.38763	5.81817	6.08382	5.99637	5.76013	4.72692	3.91409	3.31177	20.28485	14.18539	9.69244
47450	2.09682	1.94576	1.72323	8.63828	7.86284	7.23655	16.56895	10.39002	5.81859	6.08440	5.99809	5.76336	4.72520	3.91777	3.31269	20.27888	14.18875	9.69461
47610	2.09780	1.94409	1.71886	8.63963	7.86142	7.23380	16.55287	10.38653	5.81579	6.08227	5.99557	5.76007	4.72423	3.91671	3.31202	20.29500	14.19033	9.69736
47780	2.09864	1.94439	1.71913	8.64230	7.86479	7.23580	16.56318	10.38208	5.81640	6.08467	5.99765	5.76272	4.72343	3.91372	3.30913	20.28289	14.18934	9.69428	33.13	6.0	0.00	-2.04	0.01735	0.01200	0.01519	0.01827	0.01891	0.01479	0.00545	0.01513	0.02008	0.01867	0.01297	0.01652	0.01707	0.01766	0.01379	0.00570	0.01605	0.02147
47940	2.09681	1.94792	1.72302	8.64141	7.86628	7.23677	16.57011	10.38766	5.81644	6.08591	5.99783	5.76367	4.72476	3.91437	3.30793	20.27439	14.18663	9.69420
48110	2.09721	1.94485	1.71815	8.63990	7.86345	7.23527	16.55378	10.38380	5.81618	6.08444	5.99728	5.76164	4.72206	3.91520	3.30852	20.28125	14.19069	9.69564
48270	2.09708	1.94672	1.71912	8.64169	7.86518	7.23732	16.52982	10.38753	5.81700	6.08714	5.99950	5.76430	4.72392	3.91325	3.31027	20.28050	14.19004	9.69513
48440	2.09706	1.94673	1.72131	8.64262	7.86875	7.23891	16.54216	10.38541	5.81844	6.08820	6.00010	5.76522	4.72505	3.91696	3.31225	20.27782	14.19281	9.69769
48600	2.09602	1.94420	1.71928	8.64240	7.86611	7.23653	16.53920	10.38324	5.81505	6.08594	5.99907	5.76445	4.72477	3.91532	3.31198	20.28677	14.19327	9.69989
48770	2.09734	1.94742	1.72089	8.64440	7.86864	7.23989	16.56355	10.38779	5.81824	6.08850	6.00077	5.76669	4.72510	3.91625	3.30942	20.28513	14.19235	9.69806
48930	2.09852	1.94669	1.72262	8.64321	7.86830	7.24044	16.55353	10.38849	5.81602	6.08855	6.00249	5.76637	4.72531	3.91374	3.31127	20.28498	14.19133	9.69678
49100	2.09787	1.94785	1.72283	8.64647	7.87079	7.24324	16.54834	10.39286	5.82095	6.09010	6.00375	5.76821	4.72787	3.91928	3.31305	20.28050	14.19655	9.70009
49260	2.09702	1.94606	1.72036	8.64473	7.86789	7.23887	16.53685	10.38364	5.81861	6.08813	6.00144	5.76523	4.72421	3.91654	3.31162	20.27424	14.19399	9.69866
49430	2.09746	1.94635	1.72088	8.64554	7.86983	7.24085	16.55124	10.38591	5.81558	6.08958	6.00372	5.76782	4.72496	3.91644	3.31281	20.28437	14.19727	9.70048	33.13	6.0	0.00	-2.04	0.01735	0.01200	0.01519	0.01827	0.01891	0.01479	0.00545	0.01513	0.02008	0.01867	0.01297	0.01652	0.01707	0.01765	0.01379	0.00569	0.01604	0.02147
49600	2.09575	1.94626	1.72151	8.64750	7.87027	7.24328	16.53272	10.38925	5.81891	6.09066	6.00359	5.76834	4.72666	3.91685	3.31339	20.28601	14.20165	9.70557
49760	2.10009	1.94838	1.72284	8.65207	7.87429	7.24559	16.54457	10.39301	5.81836	6.09338	6.00646	5.77118	4.72563	3.91407	3.31206	20.29556	14.19915	9.70372
49930	2.09752	1.94402	1.71974	8.64845	7.87151	7.24280	16.52569	10.38497	5.81328	6.09129	6.00421	5.76909	4.72319	3.91345	3.30685	20.27885	14.19608	9.69965
50090	2.09488	1.94487	1.72251	8.64714	7.87197	7.24505	16.56002	10.38995	5.82010	6.09324	6.00606	5.77138	4.72397	3.91579	3.31248	20.28884	14.19805	9.70155
50260	2.09734	1.94393	1.71961	8.64782	7.87140	7.24354	16.56274	10.38249	5.81578	6.09121	6.00297	5.76857	4.72378	3.91738	3.31212	20.28974	14.20157	9.70627
50420	2.09822	1.94740	1.72212	8.65092	7.87317	7.24628	16.51201	10.39075	5.81719	6.09440	6.00634	5.77072	4.72345	3.91261	3.31001	20.30080	14.20087	9.70503
50590	2.09734	1.94565	1.71928	8.64952	7.87345	7.24611	16.56101	10.38227	5.81393	6.09429	6.00638	5.77176	4.72102	3.91318	3.30672	20.28138	14.19915	9.70292
50750	2.09685	1.94585	1.71986	8.65143	7.87452	7.24746	16.54506	10.38720	5.81843	6.09493	6.00881	5.77345	4.72146	3.91465	3.30932	20.29317	14.20572	9.70700
50920	2.09630	1.94630	1.72042	8.65165	7.87377	7.24644	16.53148	10.38220	5.81454	6.09401	6.00652	5.77244	4.72596	3.91725	3.31247	20.29064	14.20687	9.70822
51080	2.09949	1.94793	1.71952	8.65344	7.87649	7.24950	16.53810	10.38762	5.81335	6.09645	6.00878	5.77481	4.72058	3.91588	3.30597	20.28120	14.20094	9.70707	33.13	6.1	0.00	-2.04	0.01735	0.01200	0.01519	0.01827	0.01891	0.01479	0.00545	0.01513	0.02008	0.01867	0.01297	0.01652	0.01707	0.01766	0.01379	0.00569	0.01604	0.02147
51250	2.09807	1.94402	1.71698	8.65167	7.87574	7.24851	16.52121	10.38938	5.81495	6.09612	6.00807	5.77348	4.72189	3.91264	3.30931	20.28105	14.19959	9.70417
51410	2.09793	1.94550	1.71975	8.65254	7.87772	7.25106	16.52527	10.38780	5.81822	6.09813	6.01012	5.77627	4.72264	3.91426	3.31179	20.29225	14.20105	9.70816
51580	2.09525	1.94180	1.71884	8.65162	7.87541	7.24753	16.52897	10.38072	5.81256	6.09521	6.00707	5.77332	4.72351	3.91676	3.31116	20.28643	14.20562	9.70882
51740	2.09537	1.94523	1.72177	8.65328	7.87862	7.24992	16.53156	10.38099	5.81748	6.09834	6.00941	5.77597	4.72374	3.91348	3.30806	20.29539	14.20454	9.70851
51910	2.09563	1.94509	1.71929	8.65427	7.87756	7.24995	16.52145	10.39003	5.81751	6.09841	6.01023	5.77672	4.72528	3.91622	3.30849	20.30749	14.20592	9.70952
52070	2.09758	1.94748	1.72128	8.65655	7.88133	7.25304	16.51788	10.38586	5.81580	6.10175	6.01315	5.77840	4.72535	3.91686	3.31080	20.29449	14.20500	9.70984
52240	2.09636	1.94576	1.72014	8.65548	7.88083	7.25487	16.54045	10.38990	5.81815	6.10266	6.01369	5.77934	4.72348	3.91583	3.30982	20.30480	14.20691	9.71072
52400	2.09693	1.94316	1.71931	8.65620	7.87978	7.25233	16.52700	10.38362	5.81375	6.09995	6.01146	5.77643	4.72261	3.91537	3.31060	20.29748	14.20613	9.71061
52570	2.09692	1.94607	1.72063	8.65801	7.88209	7.25451	16.52959	10.38695	5.81483	6.10232	6.01353	5.77890	4.72304	3.91508	3.30771	20.29344	14.20699	9.71008
52730	2.09345	1.94494	1.71937	8.65535	7.88102	7.25371	16.54142	10.38551	5.81641	6.10143	6.01294	5.77888	4.72381	3.91538	3.30779	20.28150	14.20513	9.70979	33.13	6.1	0.00	-2.04	0.01735	0.01200	0.01519	0.01827	0.01891	0.01479	0.00545	0.01513	0.02008	0.01867	0.01297	0.01652	0.01707	0.01766	0.01379	0.00570	0.01604	0.02147
52890	2.09599	1.94349	1.71858	8.65670	7.88036	7.25313	16.52230	10.38350	5.81245	6.10052	6.01291	5.77845	4.72377	3.91514	3.30912	20.28687	14.20666	9.71125
53060	2.09731	1.94494	1.72008	8.65722	7.88156	7.25507	16.51331	10.38520	5.81521	6.10344	6.01418	5.77964	4.72236	3.91428	3.31023	20.28956	14.20733	9.71106
53220	2.09643	1.94646	1.72120	8.65833	7.88280	7.25570	16.53352	10.38971	5.81490	6.10341	6.01477	5.78087	4.72351	3.91470	3.30824	20.29061	14.20841	9.71241
53390	2.09628	1.94453	1.71971	8.65839	7.88276	7.25606	16.55452	10.38379	5.81533	6.10463	6.01563	5.78060	4.72189	3.91403	3.30955	20.30106	14.21022	9.71402
53550	2.09717	1.94660	1.72174	8.65955	7.88331	7.25638	16.54859	10.38569	5.81515	6.10372	6.01568	5.78131	4.71955	3.91332	3.30623	20.28911	14.20688	9.71180
53720	2.09609	1.94563	1.72095	8.66268	7.88549	7.25903	16.54068	10.39009	5.81705	6.10754	6.01905	5.78532	4.72316	3.91719	3.30861	20.31108	14.21409	9.71566
53880	2.09478	1.94346	1.71965	8.66157	7.88419	7.25603	16.54352	10.38314	5.81350	6.10440	6.01734	5.78190	4.72338	3.91773	3.31420	20.31063	14.21668	9.71987
54050	2.09869	1.94881	1.72129	8.66556	7.88925	7.25983	16.54698	10.38426	5.81581	6.10802	6.01979	5.78480	4.72353	3.91451	3.30804	20.30465	14.21358	9.71670
54210	2.09643	1.94517	1.72108	8.66308	7.88705	7.25976	16.55538	10.38518	5.81549	6.10624	6.01887	5.78458	4.72227	3.91184	3.30722	20.29957	14.21471	9.71652
54380	2.09615	1.94513	1.71994	8.66440	7.88862	7.26244	16.54200	10.38375	5.81600	6.10864	6.02019	5.78570	4.72469	3.91367	3.30890	20.30135	14.21543	9.71763	33.13	6.1	0.00	-2.04	0.01735	0.01200	0.01519	0.01827	0.01891	0.01479	0.00546	0.01513	0.02008	0.01867	0.01297	0.01652	0.01707	0.01766	0.01379	0.00569	0.01604	0.02147
54540	2.09564	1.94438	1.71924	8.66285	7.88670	7.25976	16.55262	10.38489	5.81135	6.10741	6.01888	5.78372	4.72265	3.91546	3.30882	20.30464	14.21543	9.71800
54710	2.09702	1.94620	1.72058	8.66428	7.88840	7.26067	16.53003	10.38411	5.81314	6.10858	6.02055	5.78570	4.72521	3.91795	3.31293	20.30748	14.21958	9.72265
54870	2.09999	1.94661	1.72078	8.66691	7.89178	7.26551	16.53768	10.38536	5.81785	6.11175	6.02304	5.78920	4.72549	3.91608	3.31086	20.31271	14.21796	9.72102
55040	2.09752	1.94548	1.72111	8.66640	7.89164	7.26437	16.52177	10.38632	5.81930	6.11337	6.02395	5.78895	4.72483	3.91548	3.31081	20.31167	14.21801	9.72205
55200	2.09725	1.94223	1.72223	8.66716	7.88990	7.26217	16.52559	10.38388	5.81540	6.10920	6.01961	5.78718	4.72481	3.91332	3.30859	20.30150	14.21861	9.72053
55360	2.09745	1.94460	1.71984	8.66633	7.89096	7.26129	16.56091	10.38567	5.81133	6.10954	6.02113	5.78648	4.72054	3.91162	3.30657	20.30643	14.21319	9.71901
55530	2.09319	1.94445	1.71581	8.66314	7.88801	7.26043	16.53940	10.38377	5.81041	6.10910	6.02088	5.78566	4.72339	3.91715	3.31233	20.30868	14.22098	9.72374
55690	2.09887	1.94875	1.72096	8.67100	7.89298	7.26437	16.54101	10.38471	5.82067	6.11249	6.02263	5.78944	4.72487	3.91236	3.30916	20.29492	14.21909	9.72125
55860	2.09686	1.94557	1.72122	8.66868	7.89288	7.26589	16.53681	10.38933	5.81540	6.11304	6.02416	5.79036	4.72308	3.91222	3.30887	20.31077	14.21861	9.72176
56020	2.09341	1.94571	1.71872	8.66865	7.89173	7.26276	16.55335	10.37965	5.81208	6.11029	6.02156	5.78711	4.71978	3.90864	3.30609	20.30782	14.21457	9.71836	33.13	6.0	0.00	-2.04	0.01735	0.01200	0.01519	0.01827	0.01891	0.01479	0.00546	0.01513	0.02008	0.01867	0.01297	0.01652	0.01707	0.01766	0.01379	0.00569	0.01604	0.02147
56180	2.09428	1.94443	1.72116	8.66853	7.89280	7.26533	16.54705	10.38645	5.81460	6.11370	6.02381	5.79050	4.72372	3.91454	3.31085	20.29975	14.21934	9.72235
56350	2.09501	1.94314	1.71725	8.66796	7.89068	7.26257	16.55817	10.37945	5.80932	6.11084	6.02100	5.78766	4.72280	3.91455	3.30962	20.31725	14.21980	9.72440
56510	2.09654	1.94511	1.72113	8.66955	7.89259	7.26578	16.54211	10.38797	5.81720	6.11218	6.02391	5.79026	4.72184	3.91230	3.30599	20.31351	14.21659	9.72119
56680	2.09355	1.94646	1.71898	8.67015	7.89506	7.26745	16.52792	10.38822	5.81793	6.11457	6.02590	5.79099	4.72550	3.91405	3.30919	20.31710	14.22048	9.72468
56840	2.09674	1.94586	1.71881	8.67064	7.89360	7.26561	16.54680	10.38317	5.81310	6.11424	6.02388	5.79013	4.72231	3.91543	3.30872	20.31710	14.22155	9.72481
57010	2.09564	1.94534	1.72182	8.67106	7.89563	7.26601	16.54235	10.38438	5.81759	6.11455	6.02549	5.79131	4.72002	3.91182	3.30792	20.30408	14.22050	9.72413
57170	2.09418	1.94856	1.72189	8.67341	7.89730	7.27077	16.54013	10.39098	5.81831	6.11760	6.02705	5.79482	4.72444	3.91570	3.31028	20.32010	14.22517	9.72593
57340	2.09758	1.94451	1.71901	8.67157	7.89389	7.26692	16.53334	10.38092	5.81291	6.11421	6.02576	5.79124	4.72590	3.91704	3.31093	20.30438	14.22773	9.72965
57500	2.09903	1.94864	1.72275	8.67542	7.89727	7.27029	16.54989	10.38442	5.81807	6.11792	6.02810	5.79564	4.72271	3.91552	3.31113	20.31575	14.22436	9.72708
57670	2.09821	1.94701	1.72151	8.67292	7.89858	7.26958	16.54689	10.38919	5.81670	6.11822	6.02691	5.79368	4.72355	3.91465	3.30978	20.31569	14.22713	9.72893	33.13	6.0	0.00	-2.04	0.01735	0.01200	0.01519	0.01827	0.01891	0.01479	0.00546	0.01513	0.02008	0.01867	0.01297	0.01652	0.01707	0.01766	0.01379	0.00570	0.01604	0.02147
57830	2.09715	1.94660	1.72190	8.67638	7.90002	7.27198	16.55110	10.39004	5.81582	6.11876	6.02915	5.79478	4.72520	3.91624	3.30753	20.30866	14.22516	9.72784
58000	2.09534	1.94732	1.72142	8.67375	7.89953	7.27151	16.54418	10.39174	5.81548	6.11964	6.02985	5.79663	4.72439	3.91509	3.30844	20.31031	14.22506	9.72772
58160	2.09669	1.94439	1.71976	8.67380	7.89669	7.26920	16.56482	10.38229	5.81300	6.11702	6.02878	5.79357	4.72546	3.91599	3.31005	20.31435	14.22624	9.73044
58330	2.09746	1.94838	1.72195	8.67714	7.90012	7.27189	16.51384	10.38703	5.81257	6.11997	6.02947	5.79505	4.72154	3.91148	3.30861	20.31973	14.22821	9.72965
58490	2.09548	1.94446	1.72118	8.67514	7.90012	7.27270	16.55233	10.38482	5.81459	6.12108	6.03087	5.79760	4.72208	3.91392	3.30859	20.31749	14.22827	9.72911
58650	2.09423	1.94705	1.72115	8.67519	7.89929	7.27064	16.52875	10.38477	5.81322	6.11831	6.02944	5.79570	4.72305	3.91360	3.30968	20.31734	14.23296	9.73300
58820	2.09622	1.94714	1.72042	8.67792	7.90204	7.27327	16.52727	10.38399	5.81617	6.12096	6.03078	5.79746	4.72190	3.91243	3.30736	20.30612	14.22686	9.72923
58990	2.09595	1.94977	1.72232	8.67884	7.90327	7.27499	16.55208	10.38857	5.81736	6.12437	6.03448	5.79981	4.72384	3.91244	3.31095	20.32348	14.23318	9.73362
59150	2.09621	1.94716	1.72029	8.67756	7.90090	7.27340	16.52308	10.38711	5.81495	6.12109	6.03211	5.79677	4.72557	3.91762	3.31055	20.32483	14.23264	9.73551
59320	2.09851	1.94719	1.72381	8.68101	7.90505	7.27577	16.54396	10.38743	5.82049	6.12428	6.03371	5.79951	4.72476	3.91415	3.30970	20.30848	14.22950	9.73379	33.13	6.1	0.00	-2.04	0.01735	0.01200	0.01519	0.01827	0.01891	0.01479	0.00545	0.01513	0.02008	0.01867	0.01297	0.01652	0.01707	0.01766	0.01379	0.00570	0.01605	0.02147
59480	2.09582	1.94659	1.72141	8.67795	7.90256	7.27523	16.56078	10.38386	5.81595	6.12343	6.03198	5.79887	4.72313	3.91405	3.30917	20.30968	14.22877	9.73175
59640	2.09735	1.94650	1.72104	8.67897	7.90372	7.27607	16.54335	10.38451	5.81498	6.12441	6.03337	5.80039	4.72568	3.91462	3.30690	20.31252	14.23109	9.73323
59810	2.09628	1.94484	1.71955	8.67838	7.90194	7.27489	16.51621	10.38156	5.81377	6.12344	6.03287	5.79899	4.72333	3.91747	3.31207	20.33199	14.23263	9.73534
59970	2.09578	1.94706	1.72092	8.68067	7.90355	7.27675	16.53507	10.38656	5.81520	6.12466	6.03543	5.80050	4.72123	3.91276	3.31070	20.32779	14.22971	9.73354
60140	2.09751	1.94854	1.72410	8.68245	7.90794	7.27911	16.53656	10.38641	5.82013	6.12630	6.03643	5.80318	4.72609	3.91704	3.31070	20.32674	14.23592	9.73780
60300	2.09886	1.94612	1.72132	8.68161	7.90416	7.27792	16.54816	10.38699	5.81423	6.12459	6.03363	5.80022	4.72357	3.91156	3.30949	20.30609	14.23071	9.73377
60470	2.09603	1.94596	1.72132	8.68056	7.90306	7.27567	16.51301	10.38855	5.81463	6.12459	6.03436	5.80008	4.72219	3.91282	3.31100	20.32330	14.23198	9.73545
60630	2.09685	1.94518	1.72206	8.68120	7.90425	7.27818	16.54026	10.38170	5.81533	6.12457	6.03443	5.80005	4.72516	3.91582	3.31150	20.32689	14.23608	9.73876
60800	2.09898	1.94780	1.72089	8.68432	7.90733	7.27958	16.55595	10.38951	5.81769	6.12699	6.03588	5.80273	4.72234	3.91571	3.30998	20.32555	14.23436	9.73694
60970	2.09563	1.94631	1.72106	8.68185	7.90758	7.28073	16.54412	10.39584	5.81849	6.12854	6.03817	5.80418	4.72452	3.91695	3.31081	20.33318	14.23896	9.74061	33.13	6.2	0.00	-2.04	0.01735	0.01200	0.01519	0.01827	0.01891	0.01479	0.00545	0.01513	0.02008	0.01867	0.01297	0.01652	0.01707	0.01766	0.01379	0.00570	0.01605	0.02147
61130	2.09564	1.94607	1.71988	8.68388	7.90769	7.27916	16.54374	10.38666	5.81403	6.12623	6.03532	5.80233	4.72597	3.91875	3.31238	20.31774	14.24066	9.74215
61290	2.10012	1.94743	1.72222	8.68731	7.91031	7.28225	16.55981	10.38778	5.81795	6.12930	6.03940	5.80620	4.72427	3.91698	3.31206	20.32224	14.23686	9.74010
61460	2.09815	1.94742	1.72267	8.68680	7.91152	7.28266	16.55969	10.38843	5.81879	6.13015	6.04018	5.80607	4.72604	3.91493	3.31037	20.33348	14.23983	9.74121
61620	2.09659	1.94481	1.71834	8.68506	7.90756	7.28015	16.56761	10.38320	5.81406	6.12790	6.03682	5.80451	4.72093	3.91326	3.30742	20.32418	14.23453	9.73716
61780	2.09639	1.94602	1.72149	8.68615	7.91134	7.28395	16.53473	10.38836	5.81710	6.13146	6.04137	5.80593	4.72570	3.91533	3.31009	20.33303	14.24118	9.74318
61950	2.09422	1.94460	1.71774	8.68549	7.90769	7.28150	16.52955	10.38030	5.81454	6.12824	6.03812	5.80470	4.72014	3.91220	3.30919	20.31580	14.23602	9.73694
62110	2.09774	1.94654	1.72311	8.68576	7.91050	7.28388	16.54696	10.38526	5.81580	6.13147	6.04113	5.80776	4.72333	3.91584	3.30842	20.32059	14.23829	9.74144
62270	2.09590	1.94501	1.71946	8.68513	7.90768	7.28150	16.54844	10.38001	5.81257	6.12848	6.03775	5.80529	4.72032	3.91080	3.30760	20.32418	14.23513	9.73777
62440	2.09524	1.94691	1.72225	8.68786	7.91085	7.28492	16.53424	10.38925	5.81817	6.13249	6.04168	5.80832	4.72662	3.91547	3.31173	20.32343	14.24139	9.74334
62600	2.09777	1.94755	1.72105	8.68787	7.91023	7.28303	16.54441	10.38589	5.81294	6.13025	6.04029	5.80697	4.72211	3.91221	3.30748	20.32518	14.23738	9.74112	33.19	6.0	0.00	-2.04	0.01735	0.01200	0.01519	0.01827	0.01891	0.01479	0.00545	0.01513	0.02008	0.01867	0.01297	0.01652	0.01707	0.01765	0.01379	0.00570	0.01605	0.02147
62760	2.09804	1.94905	1.72242	8.68946	7.91335	7.28676	16.54960	10.38962	5.81897	6.13352	6.04330	5.80868	4.72722	3.91402	3.31088	20.33552	14.24346	9.74475
62930	2.09634	1.94451	1.72101	8.68787	7.91085	7.28422	16.55343	10.38259	5.81754	6.13133	6.04046	5.80564	4.72198	3.91394	3.30952	20.33058	14.24033	9.74199
63090	2.09474	1.94612	1.71965	8.68631	7.90940	7.28440	16.55862	10.38270	5.81456	6.13113	6.04060	5.80806	4.72270	3.91367	3.31023	20.32728	14.23971	9.74193
63260	2.09417	1.94334	1.71948	8.68458	7.90880	7.28133	16.53144	10.38105	5.81080	6.12998	6.03854	5.80552	4.72353	3.91407	3.31333	20.32264	14.24284	9.74442
63420	2.09707	1.94657	1.72253	8.68954	7.91165	7.28510	16.54774	10.38331	5.81505	6.13226	6.04179	5.80927	4.72302	3.91215	3.30842	20.32983	14.24079	9.74239
63590	2.09783	1.94909	1.72196	8.69054	7.91444	7.28644	16.54923	10.38331	5.81708	6.13500	6.04344	5.81013	4.72683	3.91425	3.30820	20.33058	14.24216	9.74438
63750	2.09504	1.94452	1.72005	8.68741	7.91050	7.28412	16.53342	10.37994	5.81432	6.13122	6.04049	5.80732	4.72541	3.91651	3.30856	20.33028	14.24135	9.74445
63920	2.09690	1.94564	1.72205	8.68944	7.91348	7.28557	16.51801	10.38569	5.81683	6.13411	6.04278	5.81058	4.72462	3.91613	3.30868	20.33552	14.24338	9.74531
64080	2.09597	1.94875	1.72026	8.69085	7.91418	7.28611	16.54107	10.38759	5.81629	6.13469	6.04371	5.81077	4.72532	3.91812	3.31392	20.33343	14.24592	9.74617
64250	2.09628	1.94606	1.72008	8.69265	7.91505	7.28783	16.54744	10.38712	5.81690	6.13521	6.04376	5.81086	4.72183	3.91209	3.30975	20.33544	14.24246	9.74465	33.13	5.9	0.00	-2.04	0.01735	0.01200	0.01519	0.01827	0.01891	0.01479	0.00545	0.01513	0.02008	0.01867	0.01297	0.01652	0.01707	0.01765	0.01379	0.00570	0.01605	0.02147
64410	2.09394	1.94705	1.72422	8.69010	7.91669	7.29059	16.56228	10.39380	5.82118	6.13789	6.04795	5.81432	4.72721	3.91628	3.31194	20.33994	14.24654	9.74963
64580	2.09872	1.94751	1.72205	8.69274	7.91572	7.28898	16.54991	10.38710	5.81807	6.13658	6.04551	5.81188	4.72489	3.91548	3.31089	20.33559	14.24335	9.74538
64740	2.09383	1.94554	1.71905	8.69038	7.91355	7.28593	16.53460	10.38261	5.81379	6.13506	6.04363	5.80999	4.72364	3.91629	3.31081	20.33544	14.24651	9.74775
64910	2.09799	1.94831	1.72216	8.69294	7.91604	7.28769	16.54781	10.38654	5.81586	6.13627	6.04512	5.81115	4.72364	3.91236	3.31002	20.32794	14.24200	9.74372
65070	2.09647	1.94957	1.72222	8.69293	7.91738	7.29030	16.56439	10.38697	5.81765	6.13877	6.04707	5.81415	4.72528	3.91531	3.31144	20.32914	14.24662	9.74874
65240	2.09418	1.94543	1.71934	8.69374	7.91621	7.28750	16.55622	10.38330	5.81441	6.13625	6.04498	5.81137	4.72369	3.91810	3.31599	20.33919	14.24943	9.75136
65400	2.09699	1.94739	1.72161	8.69606	7.91853	7.29000	16.54015	10.39197	5.81883	6.13813	6.04781	5.81377	4.72250	3.91423	3.30949	20.32899	14.24862	9.74793
65570	2.09616	1.94525	1.72144	8.69325	7.91715	7.28927	16.53657	10.38002	5.81627	6.13804	6.04577	5.81341	4.72452	3.91327	3.31041	20.33634	14.24684	9.74740
65730	2.09560	1.94583	1.72104	8.69379	7.91703	7.29077	16.55066	10.38866	5.81594	6.13939	6.04733	5.81443	4.72352	3.91610	3.31040	20.32869	14.24824	9.74895
65900	2.09599	1.94552	1.71924	8.69375	7.91759	7.28916	16.53423	10.37787	5.81524	6.13865	6.04634	5.81354	4.72409	3.91576	3.31294	20.34351	14.25011	9.75164	33.13	6.1	0.00	-2.04	0.01735	0.01200	0.01519	0.01827	0.01891	0.01479	0.00545	0.01513	0.02008	0.01867	0.01297	0.01652	0.01707	0.01765	0.01379	0.00570	0.01605	0.02147
66060	2.09625	1.94665	1.72015	8.69648	7.91941	7.29149	16.55647	10.38120	5.81716	6.13917	6.04849	5.81463	4.72374	3.91414	3.30944	20.34126	14.24470	9.74943
66230	2.09667	1.94644	1.72312	8.69939	7.92304	7.29365	16.54114	10.39200	5.81892	6.14279	6.05196	5.81798	4.72779	3.91689	3.31417	20.32926	14.25073	9.75342
66390	2.09645	1.94803	1.72090	8.69784	7.92075	7.29309	16.53040	10.39149	5.81575	6.14162	6.05037	5.81669	4.72473	3.91736	3.31317	20.34321	14.24854	9.75056
66560	2.09360	1.94608	1.72207	8.69689	7.92084	7.29399	16.53633	10.38905	5.81647	6.14221	6.05020	5.81780	4.72445	3.91758	3.31113	20.33346	14.25181	9.75170
66720	2.09582	1.94455	1.72188	8.69699	7.92083	7.29208	16.52966	10.37783	5.81272	6.14101	6.05022	5.81587	4.72412	3.91457	3.31044	20.34216	14.25381	9.75213
66890	2.09895	1.94748	1.72279	8.69785	7.92214	7.29366	16.55016	10.39180	5.81464	6.14249	6.05147	5.81774	4.72407	3.91433	3.31219	20.33991	14.24984	9.75145
67050	2.09541	1.94607	1.72250	8.69699	7.92157	7.29445	16.54979	10.38791	5.81976	6.14389	6.05353	5.81939	4.72659	3.91636	3.31248	20.33406	14.25230	9.75334
67220	2.09653	1.94519	1.72030	8.69732	7.92089	7.29226	16.54571	10.38700	5.81467	6.14099	6.04929	5.81564	4.72602	3.91670	3.31335	20.33541	14.25251	9.75589
67380	2.09797	1.94667	1.72183	8.70083	7.92407	7.29530	16.55177	10.38528	5.81567	6.14395	6.05218	5.81695	4.72392	3.91286	3.30912	20.33226	14.25257	9.75244
67550	2.09738	1.94834	1.72212	8.70100	7.92582	7.29731	16.55664	10.39004	5.81914	6.14575	6.05333	5.81972	4.72491	3.91625	3.30843	20.33643	14.25395	9.75406	33.13	6.3	0.00	-2.04	0.01735	0.01200	0.01519	0.01827	0.01891	0.01479	0.00545	0.01513	0.02008	0.01867	0.01297	0.01652	0.01707	0.01765	0.01379	0.00570	0.01605	0.02147
67710	2.09856	1.94740	1.72321	8.69951	7.92316	7.29355	16.55330	10.38589	5.81451	6.14219	6.05217	5.81707	4.72635	3.91545	3.31309	20.33058	14.25435	9.75603
67870	2.09511	1.94489	1.72103	8.70225	7.92474	7.29547	16.55726	10.38263	5.81698	6.14431	6.05201	5.81886	4.72319	3.91442	3.30923	20.33658	14.25408	9.75389
68040	2.09719	1.94602	1.72068	8.70178	7.92535	7.29759	16.55590	10.38805	5.81511	6.14574	6.05608	5.82142	4.72670	3.91328	3.30792	20.34333	14.25641	9.75650
68200	2.09351	1.94505	1.72019	8.69973	7.92297	7.29409	16.53909	10.37924	5.81198	6.14330	6.05165	5.81880	4.72072	3.90864	3.30895	20.33298	14.25065	9.75093
68360	2.09605	1.94449	1.72187	8.70169	7.92461	7.29735	16.54267	10.38984	5.81782	6.14682	6.05612	5.82229	4.72830	3.91475	3.30995	20.33688	14.25514	9.75535
68530	2.09534	1.94316	1.71769	8.70050	7.92281	7.29495	16.52946	10.37823	5.81006	6.14323	6.05234	5.81916	4.72405	3.91405	3.31294	20.33598	14.25716	9.75561
68690	2.09574	1.94532	1.72162	8.70179	7.92411	7.29559	16.53773	10.38305	5.81553	6.14480	6.05411	5.81993	4.72207	3.91450	3.31163	20.33688	14.25362	9.75423
68860	2.09499	1.94462	1.72223	8.70222	7.92581	7.29811	16.53576	10.38966	5.81718	6.14783	6.05619	5.82159	4.72473	3.91208	3.30919	20.33553	14.25560	9.75567
69020	2.09480	1.94551	1.71846	8.70125	7.92412	7.29688	16.53773	10.38763	5.81736	6.14538	6.05447	5.81992	4.72205	3.91414	3.31156	20.33358	14.25519	9.75621
69190	2.09517	1.94595	1.71918	8.70348	7.92668	7.29801	16.53408	10.39178	5.81824	6.14711	6.05538	5.82017	4.72653	3.91583	3.31126	20.34708	14.25930	9.75707	33.13	6.0	0.00	-2.04	0.01735	0.01200	0.01519	0.01827	0.01891	0.01479	0.00545	0.01513	0.02008	0.01867	0.01297	0.01652	0.01707	0.01765	0.01379	0.00570	0.01605	0.02147
69350	2.09681	1.94778	1.72195	8.70434	7.92776	7.30039	16.55101	10.39044	5.81708	6.14798	6.05655	5.82331	4.72482	3.91702	3.31277	20.34453	14.25405	9.75700
69520	2.09645	1.94664	1.72062	8.70343	7.92736	7.30061	16.55806	10.38707	5.81929	6.14891	6.05778	5.82342	4.72505	3.91571	3.31180	20.34303	14.25892	9.75799
69680	2.09744	1.94587	1.72013	8.70402	7.92552	7.29740	16.55521	10.38692	5.81558	6.14639	6.05476	5.82160	4.72237	3.91526	3.31096	20.34994	14.25922	9.75955
69850	2.09804	1.94784	1.72200	8.70519	7.92717	7.29937	16.54582	10.38299	5.81575	6.14749	6.05722	5.82270	4.72223	3.91427	3.30748	20.35204	14.25722	9.75757
70010	2.09359	1.94610	1.71945	8.70321	7.92732	7.30131	16.54125	10.38881	5.82048	6.14991	6.05880	5.82379	4.72609	3.91484	3.31148	20.33703	14.25714	9.75927
70180	2.09433	1.94649	1.71943	8.70348	7.92606	7.29852	16.55410	10.38227	5.81444	6.14683	6.05564	5.82190	4.72604	3.91726	3.31355	20.35324	14.26030	9.76143
70340	2.09882	1.94645	1.72400	8.70723	7.92847	7.30094	16.53112	10.38948	5.81757	6.15052	6.05844	5.82440	4.72139	3.91582	3.31006	20.34003	14.25965	9.75905
70500	2.09667	1.94692	1.72435	8.70721	7.93005	7.30073	16.54211	10.39013	5.81765	6.15047	6.05987	5.82574	4.72564	3.91623	3.31060	20.34919	14.25917	9.76118
70670	2.09644	1.94718	1.72208	8.70454	7.92714	7.29941	16.55472	10.38814	5.81261	6.14815	6.05661	5.82282	4.72367	3.91441	3.31018	20.33868	14.26236	9.76280
70830	2.09819	1.94811	1.72254	8.70583	7.92860	7.30123	16.52845	10.39238	5.81789	6.14919	6.05829	5.82351	4.72453	3.91301	3.30870	20.33649	14.25587	9.75908	33.13	6.0	0.00	-2.04	0.01735	0.01200	0.01519	0.01827	0.01891	0.01479	0.00545	0.01513	0.02008	0.01867	0.01297	0.01652	0.01707	0.01765	0.01379	0.00570	0.01605	0.02147
71000	2.09407	1.94623	1.72209	8.70660	7.92914	7.30237	16.54264	10.38803	5.81676	6.15105	6.05866	5.82495	4.72492	3.91346	3.31152	20.34504	14.25733	9.75916
71160	2.09428	1.94497	1.72110	8.70451	7.92758	7.29945	16.53795	10.38173	5.81429	6.14872	6.05837	5.82361	4.72177	3.91487	3.31167	20.33454	14.25898	9.76016
71330	2.09576	1.94669	1.72106	8.70632	7.92740	7.30153	16.53523	10.38378	5.81518	6.14963	6.05744	5.82489	4.72248	3.91220	3.30985	20.34759	14.25795	9.75852
71490	2.09338	1.94460	1.72066	8.70545	7.92626	7.29870	16.53844	10.38169	5.81530	6.14714	6.05593	5.82293	4.72351	3.91718	3.31627	20.33604	14.26401	9.76444
71660	2.10013	1.94918	1.72416	8.71029	7.93194	7.30307	16.54931	10.39263	5.81841	6.15281	6.06120	5.82658	4.72426	3.91537	3.31046	20.34654	14.26009	9.76099
