WetView ver 7.1	07-14-2018	13:47:02
AC9 Absorption and Attenuation Meter
00000266		; Serial number
2	; structure version number
Reserved
0.000000	0.000000		; Depth calibration
19200			; Baud rate
0.100000			; Path length (meters)
31			; number of temperature calibration bins
				12.59339	13.44920	14.48425	15.49668	16.50852	17.49564	18.50545	19.52458	20.50176	21.48889	22.47318	23.48707	24.50962	25.49370	26.49784	27.51372	28.50746	29.47237	30.47938	31.50214	32.50470	33.49235	34.50337	35.50914	36.50618	37.52058	38.51018	39.51308	40.49994	41.49866	42.47204	; temperature bins
a650	Blue	20.34952		-0.00383	-0.00415	-0.00430	-0.00391	-0.00363	-0.00317	-0.00269	-0.00237	-0.00179	-0.00130	-0.00099	-0.00071	-0.00015	0.00000	0.00004	-0.00001	0.00015	0.00036	0.00058	0.00101	0.00161	0.00132	0.00160	0.00169	0.00242	0.00273	0.00336	0.00365	0.00427	0.00566	0.00670		; offset and temperature correction info
a676	Green	20.51193		-0.00398	-0.00384	-0.00360	-0.00306	-0.00302	-0.00255	-0.00235	-0.00212	-0.00163	-0.00136	-0.00118	-0.00089	-0.00029	0.00000	0.00068	0.00082	0.00099	0.00137	0.00145	0.00212	0.00260	0.00252	0.00321	0.00354	0.00457	0.00535	0.00617	0.00648	0.00742	0.00887	0.01002		; offset and temperature correction info
a715	Brown	20.23230		-0.00421	-0.00394	-0.00391	-0.00291	-0.00264	-0.00192	-0.00204	-0.00179	-0.00188	-0.00239	-0.00180	-0.00187	-0.00099	0.00000	0.00084	0.00162	0.00188	0.00224	0.00321	0.00381	0.00466	0.00528	0.00588	0.00696	0.00859	0.01041	0.01148	0.01282	0.01333	0.01456	0.01617		; offset and temperature correction info
c510	Red	20.40042		-0.00261	-0.00247	-0.00258	-0.00225	-0.00203	-0.00197	-0.00199	-0.00203	-0.00154	-0.00103	-0.00069	-0.00019	-0.00007	0.00000	0.00011	-0.00021	-0.00042	-0.00056	-0.00040	0.00011	0.00036	0.00050	0.00077	0.00079	0.00050	0.00042	0.00043	0.00092	0.00147	0.00200	0.00232		; offset and temperature correction info
c532	Magenta	20.40760		-0.00248	-0.00265	-0.00278	-0.00279	-0.00296	-0.00292	-0.00238	-0.00206	-0.00129	-0.00096	-0.00092	-0.00052	-0.00009	0.00000	0.00007	-0.00049	-0.00136	-0.00107	-0.00079	-0.00065	-0.00074	-0.00105	-0.00152	-0.00192	-0.00236	-0.00269	-0.00252	-0.00233	-0.00172	-0.00128	-0.00067		; offset and temperature correction info
c555	Black	20.50654		-0.00053	-0.00063	-0.00106	-0.00094	-0.00068	-0.00055	-0.00053	-0.00039	-0.00028	-0.00025	-0.00011	-0.00035	-0.00007	0.00000	-0.00037	-0.00055	-0.00036	-0.00014	0.00019	0.00044	0.00032	0.00040	0.00050	0.00028	0.00014	0.00013	0.00030	0.00073	0.00117	0.00176	0.00241		; offset and temperature correction info
a412	LtBlue	17.15231		-0.01972	-0.01823	-0.01612	-0.01381	-0.01272	-0.01080	-0.00959	-0.00866	-0.00710	-0.00532	-0.00354	-0.00148	-0.00028	0.00000	0.00176	0.00297	0.00394	0.00440	0.00453	0.00487	0.00804	0.00856	0.01065	0.01248	0.01388	0.01439	0.01659	0.01881	0.02256	0.02450	0.02719		; offset and temperature correction info
a440	LtGreen	18.00171		-0.00729	-0.00642	-0.00581	-0.00502	-0.00426	-0.00349	-0.00244	-0.00218	-0.00179	-0.00101	-0.00046	-0.00006	0.00036	0.00000	0.00040	0.00045	0.00030	-0.00015	-0.00024	-0.00035	0.00012	-0.00013	-0.00033	-0.00089	-0.00142	-0.00189	-0.00231	-0.00205	-0.00140	-0.00140	-0.00146		; offset and temperature correction info
a488	Yellow	18.86491		-0.00113	-0.00102	-0.00106	-0.00064	-0.00027	-0.00020	-0.00030	-0.00037	-0.00047	-0.00059	-0.00052	-0.00012	0.00008	0.00000	0.00025	0.00012	-0.00013	-0.00043	-0.00065	-0.00076	-0.00025	0.00010	0.00090	0.00111	0.00113	0.00104	0.00073	0.00068	0.00120	0.00186	0.00258		; offset and temperature correction info
c650	Blue	20.46075		-0.00145	-0.00097	-0.00092	-0.00139	-0.00185	-0.00196	-0.00237	-0.00266	-0.00238	-0.00163	-0.00083	-0.00041	-0.00010	0.00000	0.00005	-0.00001	0.00015	0.00034	0.00029	0.00065	0.00101	0.00164	0.00126	0.00156	0.00175	0.00270	0.00287	0.00371	0.00407	0.00473	0.00534		; offset and temperature correction info
c676	Green	20.10118		-0.00170	-0.00144	-0.00149	-0.00177	-0.00188	-0.00194	-0.00198	-0.00196	-0.00177	-0.00156	-0.00140	-0.00091	-0.00033	0.00000	0.00050	0.00092	0.00110	0.00141	0.00167	0.00199	0.00216	0.00265	0.00269	0.00289	0.00315	0.00374	0.00367	0.00408	0.00486	0.00561	0.00646		; offset and temperature correction info
c715	Brown	19.91219		-0.01201	-0.01097	-0.00859	-0.00680	-0.00651	-0.00592	-0.00535	-0.00440	-0.00387	-0.00303	-0.00222	-0.00153	-0.00028	0.00000	0.00093	0.00149	0.00247	0.00322	0.00330	0.00427	0.00373	0.00464	0.00536	0.00551	0.00643	0.00733	0.00779	0.00884	0.00899	0.01021	0.01120		; offset and temperature correction info
a510	Red	19.21192		0.00201	0.00193	0.00158	0.00098	0.00089	0.00049	0.00011	-0.00016	-0.00016	-0.00005	0.00028	0.00025	0.00006	0.00000	0.00035	-0.00022	-0.00023	-0.00080	-0.00144	-0.00154	-0.00153	-0.00204	-0.00220	-0.00219	-0.00190	-0.00128	-0.00069	-0.00018	0.00068	0.00152	0.00241		; offset and temperature correction info
a532	Magenta	19.41084		-0.00097	-0.00072	-0.00060	-0.00081	-0.00062	-0.00071	-0.00040	0.00020	0.00028	0.00043	0.00000	-0.00035	0.00007	0.00000	-0.00011	-0.00059	-0.00080	-0.00098	-0.00137	-0.00162	-0.00163	-0.00130	-0.00073	-0.00018	0.00090	0.00185	0.00175	0.00247	0.00291	0.00327	0.00349		; offset and temperature correction info
a555	Black	19.69776		0.00171	0.00183	0.00183	0.00186	0.00191	0.00170	0.00115	0.00131	0.00097	0.00073	0.00060	0.00013	0.00015	0.00000	0.00014	-0.00029	-0.00066	-0.00082	-0.00116	-0.00139	-0.00134	-0.00167	-0.00119	-0.00093	-0.00048	0.00053	0.00111	0.00095	0.00178	0.00206	0.00273		; offset and temperature correction info
c412	LtBlue	19.91180		-0.02051	-0.01853	-0.01589	-0.01311	-0.01059	-0.00877	-0.00705	-0.00581	-0.00413	-0.00231	-0.00098	-0.00066	-0.00011	0.00000	-0.00013	-0.00085	-0.00170	-0.00170	-0.00302	-0.00330	-0.00429	-0.00551	-0.00626	-0.00775	-0.00978	-0.01181	-0.01113	-0.01108	-0.01116	-0.01192	-0.01291		; offset and temperature correction info
c440	LtGreen	20.06241		-0.01064	-0.00992	-0.00892	-0.00766	-0.00639	-0.00531	-0.00478	-0.00384	-0.00287	-0.00187	-0.00102	-0.00063	-0.00023	0.00000	-0.00007	-0.00053	-0.00090	-0.00119	-0.00169	-0.00197	-0.00226	-0.00257	-0.00260	-0.00289	-0.00394	-0.00470	-0.00481	-0.00493	-0.00520	-0.00580	-0.00620		; offset and temperature correction info
c488	Yellow	20.35984		-0.01125	-0.01082	-0.00966	-0.00833	-0.00726	-0.00661	-0.00579	-0.00500	-0.00389	-0.00278	-0.00167	-0.00113	-0.00041	0.00000	0.00055	0.00121	0.00187	0.00226	0.00222	0.00251	0.00281	0.00359	0.00414	0.00427	0.00401	0.00404	0.00486	0.00563	0.00638	0.00684	0.00718		; offset and temperature correction info
0.003500	0.004000	0.015000	0.020000	0.015000	0.020000	2500.000000	2000.000000	1000.000000	; maxANoise	maxCNoise	maxADifference	maxCDifference	minACounts	minCCounts	minRCounts	maxTempSdev	maxDepthSdev
0			; auxilliary capabilities
1			; acquisition binsize
0	3.42825	2.84692	2.12720	10.75735	8.69841	7.06761	36.24850	25.16009	14.25854	3.27195	2.52237	2.13916	12.64131	9.57386	9.40852	36.50669	23.99505	13.41544	31.47	6.2	0.00	7.53	0.01265	0.01288	0.01625	0.00779	0.00579	0.00636	0.00466	0.01262	0.01676	0.00676	0.00694	0.00877	0.01485	0.01091	0.01192	0.00218	0.00619	0.00866
160	5.00231	3.34728	3.07485	11.96144	10.34652	7.85838	36.62870	24.40445	13.40218	3.93696	3.65118	3.14279	11.50687	8.91671	7.13502	36.02071	24.40642	13.77556
320	3.73368	3.00594	2.03702	11.10549	8.61228	7.75046	36.50124	24.79705	13.60540	4.27530	3.14930	2.46806	10.72138	8.80419	7.23643	36.93604	24.57731	14.00709
490	4.05425	3.24714	2.55495	10.89330	8.78142	7.04226	36.35529	24.64781	13.56483	4.59613	3.67468	3.57345	10.90341	8.76351	7.38378	38.21998	24.75410	15.31102
650	4.02995	3.56850	3.73332	11.37406	9.60193	7.69247	37.50958	25.36712	14.27749	3.71034	2.93414	2.31408	11.57094	9.12854	7.64479	37.32044	24.58276	13.26534
810	3.94647	3.22241	2.86172	11.82332	9.78199	7.55024	37.03606	24.35094	13.65045	3.62519	3.01332	2.52355	11.35339	9.22316	7.40044	36.54129	24.34887	13.60435
980	3.43763	2.69946	2.21990	10.97914	9.00671	7.93471	36.99689	25.00423	13.59139	4.97409	4.03896	2.31455	11.54424	9.72709	7.74347	36.02208	23.68912	12.98278
1140	3.98209	3.30402	2.53940	10.36545	8.61998	7.45324	36.73964	24.40185	13.27391	3.34960	2.71899	1.97626	10.70533	8.51572	7.11483	35.85483	24.08972	14.09363
1300	3.47595	2.86773	2.05220	10.97669	8.62384	8.21075	36.68808	24.45807	13.64908	3.45547	3.05350	2.29420	11.72828	9.89790	8.57748	38.08930	26.14314	14.69295
1460	4.60842	4.11118	3.02831	11.83121	9.56140	7.23751	36.66824	23.97918	13.32329	3.91260	3.05089	1.86797	10.43549	8.37260	7.10515	35.73820	23.70090	13.13640
1630	3.98644	2.92096	2.10480	10.34084	8.38631	6.91416	37.19352	24.57243	13.35781	3.56939	2.60695	2.23954	10.97603	9.00415	7.22316	36.56165	24.62288	13.99776	31.47	6.1	0.00	7.74	0.01265	0.01287	0.01625	0.00779	0.00579	0.00636	0.00466	0.01262	0.01676	0.00677	0.00695	0.00877	0.01485	0.01091	0.01192	0.00218	0.00619	0.00866
1790	3.47795	2.97701	2.36556	10.58892	8.46512	7.55649	37.13014	24.58956	13.89684	3.74047	2.59259	1.94593	11.73920	9.54429	8.44230	36.83443	24.42050	14.04068
1960	3.88500	3.14550	2.26623	12.05977	10.15148	7.66075	36.42387	23.99590	13.17927	4.94951	4.57534	2.92329	10.96140	8.95964	7.22643	36.72354	24.43496	13.87590
2120	3.27504	2.64662	1.84150	11.36740	9.95753	8.99099	37.15090	24.44599	13.10100	3.73873	3.50887	2.64960	10.58577	8.52302	7.35462	37.56682	24.63551	14.12560
2280	3.85806	3.15998	2.24101	11.20916	9.06904	7.63429	36.36517	24.29160	13.53650	4.34051	3.31554	3.12780	10.81062	8.52364	6.91857	37.15931	24.86271	13.81570
2450	3.07995	2.45705	1.73988	11.00164	9.22311	8.52929	36.45115	23.90390	12.99770	5.64997	4.83593	4.31226	10.36475	8.34024	6.82481	38.26407	26.57932	17.05155
2610	3.07188	2.44272	1.73348	12.27561	10.02328	8.84025	36.47144	23.91762	13.00208	5.89049	4.93083	3.93428	10.35622	8.31968	6.81915	36.76480	24.60648	13.98476
2770	3.06751	2.44681	1.73888	11.91102	9.52774	8.03382	36.37479	23.91788	12.99037	4.71120	3.99242	4.04389	10.35185	8.31714	6.81354	38.31394	25.45786	15.33107
2940	3.10423	2.56137	1.74801	12.19256	10.11246	9.18700	36.13716	23.90859	12.99280	4.25357	3.17378	2.44065	10.36046	8.32382	6.81824	37.47447	25.13576	13.47750
3100	3.14053	2.47107	1.75157	11.96232	11.67510	9.04056	36.12436	24.07930	13.20389	4.50843	3.71659	2.98285	10.60062	8.43639	6.83686	37.68429	24.32709	13.50105
3260	3.08590	2.46725	1.75561	10.79649	8.93177	7.29009	35.80851	23.89729	13.05314	4.32847	3.47482	3.88844	11.04553	9.57882	7.34154	37.42089	25.61460	14.38511	31.53	6.2	0.00	7.55	0.01265	0.01287	0.01625	0.00779	0.00579	0.00637	0.00466	0.01262	0.01676	0.00677	0.00695	0.00877	0.01484	0.01090	0.01192	0.00218	0.00619	0.00866
3430	4.05366	3.90824	3.09409	11.99796	9.47297	8.06349	37.28534	24.79109	15.04409	3.73434	3.22255	2.60295	15.06667	11.81728	9.58372	36.06825	24.25107	14.22045
3590	3.76593	3.66763	2.29341	11.09027	9.17471	8.73949	37.51503	25.93149	14.24579	4.74600	3.97386	2.56626	11.78589	10.31009	9.56080	35.77255	23.72457	13.13462
3750	5.46537	4.16224	2.41474	10.89608	8.65787	7.24949	37.09271	25.84039	15.31016	6.03001	3.92519	4.02616	12.79386	11.85076	9.16359	36.42275	23.95758	13.49486
3920	3.51618	3.19434	2.39119	11.15085	9.51974	7.43466	36.22628	23.98057	13.01675	8.66879	10.75411	18.47072	10.48358	8.59892	7.45005	53.99962	41.02599	17.63892
4080	3.86455	3.08172	2.09616	10.46398	8.43069	7.39017	36.58067	24.00816	13.01071	4.67580	6.07741	7.20393	10.35480	8.32778	6.81887	36.55051	24.73666	14.63878
4240	3.07100	2.44795	1.73069	10.55148	8.54827	6.96769	36.42034	23.91467	12.99355	3.20652	2.53305	2.09944	10.35516	8.32190	6.81638	36.22643	24.10542	13.32472
4410	3.06554	2.44378	1.73141	10.53102	8.47678	6.92205	36.25994	23.96367	13.01275	3.23979	2.56784	2.02744	10.40636	8.32784	6.81454	35.94783	23.80616	12.97022
4570	3.06718	2.44705	1.73308	10.34186	8.36284	6.86208	36.47143	23.95690	12.99677	3.19282	2.48127	1.79863	10.35847	8.31351	6.81946	35.67546	23.67592	12.96154
4740	3.06952	2.45192	1.73495	10.34158	8.35461	6.85134	36.54590	23.90828	12.99849	3.13045	2.45812	1.80312	10.35788	8.32165	6.80876	35.66752	23.67164	12.95228
4900	3.06534	2.44547	1.72933	10.53759	12.61618	10.08724	36.03497	23.90182	12.99634	5.48477	4.35905	5.41906	10.35579	8.31562	6.81681	41.61336	24.36112	13.26344	31.47	6.0	0.00	7.69	0.01265	0.01287	0.01625	0.00779	0.00579	0.00637	0.00466	0.01262	0.01676	0.00677	0.00695	0.00877	0.01485	0.01090	0.01192	0.00218	0.00619	0.00866
5060	3.07156	2.44803	1.74239	10.83587	9.30563	7.14329	36.25814	23.91281	12.99768	3.21116	2.67079	2.09299	10.35183	8.31382	6.80906	35.70014	23.67521	12.95747
5230	3.07172	2.44909	1.73165	10.33687	8.35283	6.84032	36.16690	23.93441	12.99432	3.12652	2.45494	1.79573	10.35522	8.31652	6.81229	35.73869	23.66954	12.95061
5390	3.06358	4.76589	4.70327	10.33198	8.35169	6.84123	42.16250	37.27733	18.97294	3.12612	2.45528	1.79700	13.74654	21.19131	15.42682	35.62350	23.66581	12.94730
5550	10.66179	11.99800	10.59372	10.33195	8.35049	6.84101	45.04973	39.69547	22.63104	3.12344	2.45437	1.79411	17.54398	14.19147	18.48549	35.62086	23.65753	12.94966
5720	15.15307	10.42722	13.36409	10.33553	8.35095	6.83901	47.11283	30.87786	18.38897	3.12260	2.45243	1.78900	13.84853	12.32473	11.15751	35.77338	23.66043	12.95435
5880	8.15455	6.45730	8.65665	10.33998	8.35404	6.84777	41.33043	29.62647	15.38026	3.12889	2.45929	1.79425	18.00112	15.41072	21.77894	35.63140	23.66098	12.95209
6040	11.65529	19.22471	10.93299	10.33290	8.35092	6.84371	40.07314	33.64096	26.10431	3.12932	8.89670	28.01902	22.74245	25.72757	25.08471	87.60057	78.69567	53.38201
6210	19.15847	17.60039	19.62601	58.55640	60.98504	57.17633	49.07215	42.59933	32.10374	22.21816	20.68205	30.19675	24.55938	26.76405	33.88478	92.01890	113.59318	101.84448
6370	27.06786	25.13648	25.73713	79.34734	58.14400	42.52199	51.16365	45.36953	32.61076	44.33273	44.86470	54.51757	32.82297	26.84889	27.50009	95.01994	87.20261	76.17669
6530	21.00829	23.13078	17.60966	115.17888	94.46827	68.56772	51.54467	38.01482	31.74815	56.87860	48.06967	99.95616	29.52682	29.11659	25.27350	78.34341	48.00711	48.01647	31.41	6.0	0.00	7.54	0.01264	0.01287	0.01624	0.00779	0.00579	0.00636	0.00466	0.01262	0.01676	0.00676	0.00693	0.00875	0.01485	0.01090	0.01192	0.00218	0.00618	0.00866
6700	23.25894	18.28570	18.96650	97.26129	94.99012	99.15135	52.03496	41.92553	36.21645	103.52309	107.83177	138.87436	32.53963	30.42511	23.68335	83.70645	119.46853	109.26112
6860	24.75003	22.32847	17.89083	113.35567	95.92538	102.96503	56.44771	47.11157	32.23175	103.17218	103.06253	138.87436	33.01967	24.67196	29.31035	90.63793	135.56291	104.87857
7020	25.39574	24.85603	21.29386	108.24741	135.24364	109.89650	55.01280	44.96552	33.58944	107.40074	107.83177	98.62084	31.34357	35.50972	28.27263	97.89730	104.20796	139.21844
7190	25.91475	27.16043	24.85579	127.21861	109.59415	46.04335	54.07149	41.22349	28.08761	101.29165	97.03257	111.79386	28.20118	23.68940	22.98389	94.53257	46.61620	41.78995
7350	16.32009	18.75220	20.46715	45.19013	60.73122	62.86575	52.30663	40.44828	30.22804	50.15630	65.17372	90.67154	22.77599	21.72651	19.84936	83.23393	97.72101	104.87857
7510	16.46194	16.97129	15.47602	92.25354	39.14644	41.66597	49.58156	35.34627	25.33513	61.62654	96.48197	83.15282	22.05566	21.28413	19.76052	85.08796	108.48240	68.32601
7680	16.24570	15.71408	12.93777	71.38365	69.29951	66.94310	44.95180	37.02257	26.45497	38.83834	36.11947	32.89402	21.58938	17.69536	19.47984	124.97780	71.16940	69.29747
7840	11.77736	11.01456	13.27887	35.12288	56.52290	29.34696	49.27821	37.02605	28.90357	35.29567	28.83385	49.47855	24.36106	20.96063	18.01144	60.37875	51.02676	49.59965
8000	14.66064	14.48236	11.97237	49.83954	60.43936	59.15369	46.21636	30.13295	20.32607	41.09183	47.47164	72.58073	19.82248	17.61973	16.23406	65.86983	70.44545	48.52031
8170	10.21340	12.14555	11.68519	42.73860	27.24927	45.36671	46.69709	32.35618	26.41400	57.51370	30.16708	38.00714	22.81245	22.29470	18.80370	78.34178	60.28930	44.40817	31.47	6.1	0.00	7.63	0.01264	0.01287	0.01624	0.00779	0.00579	0.00636	0.00466	0.01262	0.01676	0.00675	0.00691	0.00874	0.01485	0.01090	0.01192	0.00218	0.00618	0.00865
8330	11.55379	16.71503	14.10634	46.31668	63.74778	83.91786	43.48893	33.98015	25.52013	58.93091	60.78986	59.30064	23.66297	23.53196	18.16713	92.39521	99.72667	73.21772
8490	15.07997	17.97733	16.36866	106.01296	78.43737	114.31003	49.74390	37.38500	27.38760	86.79427	98.64689	66.11018	26.97778	25.89849	21.26267	124.97617	135.56186	139.21643
8660	19.49840	16.02189	17.39278	138.20172	109.58961	98.67028	53.91743	32.60830	25.90057	58.28992	70.49946	48.61818	26.46254	28.65291	26.39938	95.53178	61.34410	82.51762
8820	20.67895	17.25658	18.47837	71.63446	92.61230	83.00352	51.07731	38.33974	23.32306	54.56800	53.15737	37.62644	26.00710	20.89937	23.72812	69.68188	55.91683	77.96959
8980	16.74537	17.55283	17.65023	62.60613	53.48644	31.67499	52.03041	40.80070	30.28089	72.89782	60.78986	32.68626	24.05853	24.07675	20.02540	87.36417	48.84557	62.78160
9150	15.49126	15.57970	14.15533	51.63391	43.18984	40.53106	47.92013	38.65167	24.31499	29.52404	19.83482	24.48527	20.35533	17.21490	13.88235	68.69996	44.86603	29.53100
9310	9.49986	7.96106	7.18160	31.92281	21.46678	28.40105	45.76052	29.73504	18.45245	25.07586	21.81020	16.26434	21.43893	15.65660	10.12143	49.99856	40.90816	39.05809
9470	6.28747	5.79158	4.52638	36.28915	27.42145	20.15511	41.80771	30.96826	22.18903	15.34744	8.61882	4.56158	18.49539	14.68491	14.09861	41.13727	34.20239	25.85240
9640	11.54684	13.33817	13.38332	14.05538	15.07365	12.75349	46.16185	35.75114	24.85083	10.87358	8.64009	11.70142	22.75033	19.12082	16.64474	45.37294	27.88775	21.69212
9800	13.52207	11.10106	9.25604	14.05076	10.47606	11.20132	42.88349	32.73266	21.01277	8.66692	8.51023	5.45865	16.92790	18.70527	18.60621	37.83761	26.00192	23.70914	31.47	6.3	0.00	7.68	0.01265	0.01287	0.01624	0.00779	0.00579	0.00636	0.00466	0.01262	0.01676	0.00675	0.00691	0.00874	0.01485	0.01090	0.01192	0.00218	0.00618	0.00865
9960	12.87064	8.64775	11.69188	18.59016	13.17782	10.63878	43.58300	31.31512	23.35587	13.79185	9.18251	4.05583	14.91823	11.67313	13.60715	37.81463	26.78971	14.92464
10130	9.81443	9.09202	10.81493	12.27113	9.88365	7.53815	42.42637	27.08992	16.15999	3.75575	4.85111	3.01987	15.84731	16.55340	13.48396	37.99998	24.69688	14.21097
10290	8.60250	9.99366	7.03274	11.35167	8.81716	8.33876	41.29920	26.71151	16.55917	5.22537	3.86454	3.57201	14.55939	9.95116	7.50997	37.49515	25.05345	14.31020
10450	4.75059	5.14319	3.98521	12.55719	9.56500	8.14187	38.83163	26.84379	15.52144	4.13127	3.55403	3.21122	11.36947	9.48479	7.20197	36.41965	24.35941	13.51552
10620	5.76414	5.31366	4.13746	10.58644	8.59489	6.94434	36.64614	24.37784	14.25958	3.78844	4.82353	4.84489	10.61845	9.44190	9.07986	37.18402	24.47273	13.59033
10780	5.75630	3.18345	2.63480	11.93375	9.76564	8.65315	38.47366	25.15498	14.62016	4.19735	5.07787	4.18879	13.63897	9.58206	16.85808	37.94335	26.72272	20.80695
10940	9.44494	8.68004	7.92645	24.24457	14.18581	15.29620	42.53749	33.86044	21.74918	18.43649	29.80151	30.94535	17.19913	16.96740	16.12743	45.90428	39.87149	35.70135
11110	13.32797	15.43339	16.74504	36.69158	41.14709	58.62952	44.46391	36.12750	22.66932	39.38874	53.01447	72.44044	26.37505	23.06285	22.97060	69.63954	59.53881	46.07656
11270	19.13295	19.50694	11.92893	67.26052	23.20712	55.55629	44.46587	38.55831	24.35702	26.85341	55.22276	47.50376	23.26323	19.99488	17.44101	90.96146	70.62529	74.90305
11430	17.69889	18.15970	16.29615	45.19390	52.75735	66.00829	45.55660	36.04313	24.17590	42.98588	48.93295	46.54582	21.40607	17.94328	17.19431	65.36776	35.50757	26.95937	31.47	6.1	0.00	7.68	0.01264	0.01287	0.01624	0.00779	0.00579	0.00636	0.00466	0.01262	0.01676	0.00675	0.00692	0.00874	0.01485	0.01090	0.01192	0.00218	0.00619	0.00865
11600	12.08298	13.51827	9.15462	38.12229	49.32259	33.85153	41.27454	30.57880	19.54022	30.97044	25.04046	29.40421	18.29969	15.87826	13.35733	47.41586	39.07303	23.82594
11760	9.78384	7.67573	7.89451	21.08518	23.88422	13.43588	40.84835	27.86700	17.26740	11.55914	15.05986	8.59723	14.13022	13.36115	8.98760	42.14287	28.83078	19.01270
11920	4.44204	4.54492	3.82685	13.93232	11.87262	11.90364	38.50862	26.37289	16.48146	9.82339	7.98689	10.50188	12.43653	11.39165	8.27516	42.39618	28.15918	17.09582
12090	6.33248	4.22794	5.22133	18.51631	22.62556	14.66378	40.42646	26.79602	15.97604	12.52212	6.69109	8.27445	12.93034	10.48248	8.30249	39.72025	27.26602	15.97951
12250	4.35211	3.03686	2.97612	13.44515	11.55692	9.19945	37.10963	24.50309	13.81447	4.36953	3.80927	4.12705	11.62796	9.93272	7.65328	36.59085	24.93720	14.02225
12410	4.05828	3.85121	2.97916	12.32030	12.16290	10.12040	37.69695	25.30236	13.77198	6.18574	4.31431	3.53610	11.05480	8.95424	8.35555	36.68701	24.75994	15.11615
12580	4.73035	4.57214	2.90802	12.45131	9.13836	7.86227	37.73997	24.87529	13.87664	5.86858	3.78003	3.31961	11.07239	10.11357	8.72873	38.89104	26.18682	14.24217
12740	5.57721	4.14674	3.71785	13.27270	10.53215	9.02171	37.42226	24.90566	14.54648	4.58891	3.69153	3.30781	11.85402	10.70177	8.24331	37.41099	26.22672	15.18440
12900	4.76920	3.77158	3.31428	13.28160	12.44601	10.36506	37.13602	24.96716	15.97578	7.10964	5.67263	5.01292	12.00518	9.98937	7.81836	37.32947	25.49097	16.06021
13070	4.97714	4.41951	2.73823	10.77095	9.12386	8.14847	37.09950	24.75522	14.12133	4.77830	3.72890	2.16999	11.05192	9.23583	7.72170	36.50511	27.02857	15.99912	31.47	6.1	0.00	7.76	0.01264	0.01287	0.01625	0.00779	0.00579	0.00636	0.00466	0.01262	0.01676	0.00676	0.00693	0.00875	0.01484	0.01090	0.01192	0.00218	0.00618	0.00865
13230	3.83257	3.45388	3.34922	13.42556	11.40768	9.85805	38.18209	25.86733	15.19292	6.26455	3.72849	4.30923	12.18791	9.59106	8.17585	39.34987	25.60153	14.18046
13400	3.75790	3.41029	2.91741	11.78507	10.14226	7.74601	37.20919	24.90128	13.84181	4.59627	3.95077	3.89777	12.95007	9.70573	8.41911	37.05937	24.61471	13.96588
13560	4.25594	3.73797	3.50505	12.61622	10.06666	8.88274	37.03669	25.64492	13.94978	4.99239	4.34659	3.01872	11.66609	9.29184	7.55481	36.46206	25.60002	15.37127
13720	4.16660	3.19594	2.58512	11.71840	8.98263	7.29230	37.07977	25.25307	14.38246	4.18843	3.13541	2.77582	11.56207	9.45032	8.12007	36.91003	24.11358	13.88061
13890	4.33922	3.66651	2.68266	11.24279	8.95907	7.35786	36.98356	25.40843	14.14551	3.80735	3.32578	2.82310	11.32271	9.21457	7.41412	36.28329	25.12468	13.33841
14050	3.80885	3.05040	2.50595	11.01103	9.57997	7.69237	37.60091	24.59225	13.86204	3.96487	3.90797	2.29773	11.31578	9.42365	8.06298	36.99574	25.80152	15.38136
14210	3.63827	3.09296	3.16538	11.11985	8.78657	6.94501	37.75335	25.08167	13.43816	3.50788	4.63926	3.35238	10.78297	8.62485	7.90265	36.56134	24.00094	15.35234
14380	4.50950	3.47359	2.05990	12.97811	9.28698	7.77189	36.60323	24.28850	13.47864	5.22096	3.25048	2.90510	10.80669	9.07946	8.14243	37.07610	24.49527	14.22534
14540	3.88633	4.28485	3.17083	12.00623	10.66386	8.39260	39.32318	25.14918	13.48174	4.49189	3.86118	2.61842	11.58034	9.32410	7.61030	36.19229	24.50533	14.88636
14700	3.67968	3.20196	2.02067	10.82721	9.03498	7.61101	36.66601	25.71797	15.47870	3.45836	2.82264	2.78067	10.96735	8.61468	7.19191	36.30091	24.67911	14.05680	31.53	6.1	0.00	7.62	0.01264	0.01287	0.01625	0.00779	0.00579	0.00636	0.00466	0.01262	0.01676	0.00676	0.00694	0.00876	0.01484	0.01090	0.01192	0.00218	0.00619	0.00866
14870	3.46479	2.72652	2.20337	10.81855	8.91914	7.33744	37.05364	24.61680	13.70038	3.61991	3.18874	2.90109	11.41479	9.52014	7.37802	36.40565	25.17454	13.73962
15030	4.15419	3.53193	2.62300	11.52365	10.38357	9.74170	37.31939	25.39214	14.33319	4.02762	3.42735	3.06876	10.91753	8.91938	7.49999	39.34909	26.55735	13.98955
15190	3.99777	3.99311	3.01830	11.29810	9.40091	7.82525	37.27333	24.57215	13.76374	4.18998	4.02095	3.01735	11.13900	8.96230	7.23549	37.80704	25.36328	14.41986
15360	3.88088	3.02328	2.89671	12.28413	10.40532	10.80889	37.08648	24.83016	14.28636	7.44619	5.74051	6.37963	12.80525	10.57993	7.67476	39.60247	26.02961	14.49252
15520	4.10018	3.14983	3.00349	15.35305	11.17654	10.24261	37.01252	24.40986	13.48903	5.27314	3.35177	3.10281	11.78213	10.38460	7.98919	36.94498	24.43224	15.74832
15680	5.12221	4.00708	3.74637	11.26834	9.03964	7.44688	37.37243	25.44667	16.21349	4.54177	3.23272	2.41115	11.93534	10.59275	10.27188	38.21465	24.34065	13.89828
15850	5.49963	4.58727	3.08064	10.85677	8.96841	9.86324	39.99404	25.70531	14.29856	4.05861	3.69462	3.34131	12.55808	11.10935	9.70993	37.89418	25.05701	14.08070
16010	4.95579	4.13139	3.10594	10.79108	10.06322	8.45716	36.84785	24.51511	14.04588	5.38298	4.65796	3.94196	11.45284	9.26449	7.79244	37.24064	24.70543	14.36533
16170	4.13391	3.92869	2.82473	11.78312	9.12559	8.39644	38.13987	26.13507	14.76983	4.56577	3.73007	3.26309	13.24525	10.96679	9.40038	37.27318	24.95576	13.84095
16340	4.80531	4.38081	3.63447	10.88051	9.88783	8.10433	37.50476	26.18785	13.95623	4.48225	3.63645	2.88374	11.90087	9.81400	8.13199	37.78874	25.01752	14.91079	31.47	6.1	0.00	7.57	0.01264	0.01287	0.01624	0.00779	0.00579	0.00636	0.00466	0.01262	0.01676	0.00676	0.00694	0.00876	0.01485	0.01091	0.01192	0.00218	0.00619	0.00866
16500	4.07323	3.24438	2.45183	13.85833	10.33507	10.99390	36.76396	24.58878	13.66752	6.17081	8.51416	6.38911	10.95917	10.08819	7.94128	38.63051	26.69947	15.16099
16660	4.80465	3.84112	3.33386	13.93653	9.66973	7.84325	38.02961	24.94946	14.31895	5.61172	4.46802	5.38573	11.87042	9.91015	7.84426	39.66932	27.01417	15.55332
16830	3.87063	3.42402	2.78375	14.04395	12.14683	11.43263	37.81514	24.92300	14.49676	5.59407	2.97105	3.49477	11.90860	9.47419	7.46155	40.38675	26.63811	15.90554
16990	3.69564	3.63966	3.25373	12.87289	9.28099	8.60083	37.23610	25.92795	14.26265	4.59644	4.02774	2.78081	10.80834	8.95614	7.58925	36.49806	24.35826	15.00823
17150	3.96943	3.20850	2.59053	11.55981	11.59695	7.60789	37.98429	25.11179	13.94329	5.26661	5.80182	2.97239	12.20116	10.89823	9.57391	39.28242	28.69066	19.65172
17320	4.68780	3.45702	3.11730	11.64799	9.49714	10.28337	37.55485	25.15496	14.55052	4.62716	4.29523	5.00168	12.02310	9.38990	8.06942	38.84616	26.08968	14.12073
17480	4.24133	3.39741	2.83539	13.96085	10.01167	8.29598	36.93830	24.78907	15.45772	4.86290	3.51010	3.08322	12.04057	9.31330	7.64905	37.15398	25.02037	14.38985
17640	4.32355	3.15934	3.00336	12.57096	10.42592	8.22625	37.43546	24.47861	13.87750	4.98787	5.44537	4.86207	10.74749	8.63269	7.43063	38.50157	25.90880	14.34133
17810	3.47756	2.83837	2.13607	11.21696	10.44384	8.25175	36.58011	24.24304	13.52674	4.46555	4.99440	3.90911	10.73366	8.83465	7.06224	36.86972	25.13202	14.41844
17970	3.81804	2.93053	2.00965	11.78317	9.91552	7.92726	36.80584	24.89662	14.03011	4.73329	6.05203	4.08406	11.41692	8.55852	7.67273	38.46030	26.13778	14.51665	31.47	6.1	0.00	7.65	0.01265	0.01288	0.01624	0.00779	0.00579	0.00636	0.00466	0.01262	0.01675	0.00676	0.00694	0.00876	0.01485	0.01091	0.01192	0.00218	0.00618	0.00866
18130	4.45884	3.28672	3.16765	11.33879	10.26014	8.67688	37.10240	24.94331	14.07579	5.07822	4.25694	4.23027	11.81611	9.43367	7.72720	37.75337	26.27887	14.42684
18300	4.34491	3.55820	3.08116	11.15821	10.12985	8.30841	37.31440	26.10118	15.16031	4.78243	3.33194	3.71671	11.38276	9.11759	7.60351	36.17586	24.61844	13.43517
18460	3.58115	3.16678	2.52122	10.93304	8.89135	7.16636	36.89205	24.81341	14.29823	3.78390	3.39533	3.60386	11.17166	9.26714	8.68966	36.69846	24.94228	14.31869
18620	4.09621	3.83063	3.79082	12.20666	9.66394	7.28707	37.61677	25.05645	14.39592	5.45200	5.05797	4.41538	12.77341	10.46087	8.38977	37.89610	26.03571	14.77548
18790	4.54546	4.45086	3.78915	11.40303	11.86223	10.37413	37.99418	25.83162	14.87782	4.86277	3.83063	3.17729	12.46301	10.36888	8.88226	37.44541	26.05657	15.87625
18950	4.82610	3.97278	2.66950	11.50224	9.47325	7.77837	37.30960	24.64527	13.32888	5.66705	3.12207	3.24217	11.46254	9.28966	7.71277	39.10662	24.28298	13.25110
19110	3.90881	3.82604	3.15269	11.76047	9.99404	8.13909	38.63545	25.34414	14.98172	5.00091	3.70396	4.17983	11.51632	9.32593	7.77413	36.75874	24.96837	15.26307
19270	5.08638	4.12375	2.96993	11.65163	10.15179	9.49332	37.80269	24.60132	13.92283	4.71756	5.87758	3.13320	11.78183	9.11409	7.80330	36.15362	25.12747	13.75439
19440	3.88817	3.35294	2.71876	11.08183	9.59793	8.83189	37.71730	24.55465	13.29776	4.55795	3.72756	3.19223	11.06761	8.68586	7.78437	37.81218	26.79407	14.59086
19600	3.74161	3.49318	2.47868	11.61493	9.57155	8.50233	36.66912	24.44345	13.68942	4.40934	3.75079	2.51311	10.77607	9.40322	7.86739	36.95576	24.59938	13.65015	31.53	6.1	0.00	7.57	0.01265	0.01288	0.01625	0.00779	0.00579	0.00636	0.00466	0.01262	0.01675	0.00676	0.00695	0.00877	0.01485	0.01090	0.01192	0.00218	0.00618	0.00866
19760	3.73011	4.20999	2.65802	11.10523	8.63134	7.72504	36.94143	24.36898	14.14282	3.79182	3.59206	2.11710	11.37396	9.63927	8.81431	36.14424	25.01740	14.35022
19930	4.13827	3.96728	3.14944	11.43604	9.37304	8.45678	37.66250	24.03698	13.86352	4.99875	6.27081	4.24912	11.07761	9.59191	8.06712	38.04990	26.87925	14.11162
20090	3.44971	3.09967	2.03891	13.15912	10.18441	8.66782	36.75240	24.22160	13.64052	5.61536	4.29941	3.95191	10.84219	8.65292	7.51434	37.80129	25.80539	15.53994
20260	3.97188	3.35543	2.56310	11.45050	8.72893	7.57630	36.73514	24.36854	13.67815	4.22636	3.17990	2.33542	11.36664	8.87597	7.76964	38.53822	26.15895	14.87886
20420	3.57100	2.89526	2.73296	11.40421	10.31123	8.02407	37.03543	24.51377	14.37111	4.68273	3.39146	3.88704	11.15216	8.90997	8.10720	38.05829	25.28670	13.75791
20580	3.78355	2.89564	2.45602	12.36488	9.14601	7.10882	36.87771	24.28231	13.26381	4.16591	3.40788	2.77755	11.23953	8.71300	7.17734	36.35023	24.22426	13.53995
20750	3.69404	2.97158	2.17714	12.34411	9.24298	7.43979	37.63070	26.43076	14.23397	4.39906	5.78448	3.41505	10.97846	8.69642	8.30585	37.67442	24.55337	14.06242
20910	4.44475	3.88053	2.78135	11.77003	13.22920	9.30916	37.52506	25.33738	14.33217	6.43367	4.68648	3.41603	10.96214	9.12009	7.57681	37.51249	26.73605	14.45321
21070	3.99175	2.99432	2.27359	11.48693	9.81656	8.97483	38.20356	25.54299	14.31374	3.76818	2.95062	2.62609	11.98970	8.91330	7.81465	37.50613	24.62186	16.84846
21240	4.55086	3.85820	3.12627	12.02744	9.94583	9.70870	37.60632	25.29820	14.46335	5.65069	5.08722	5.11768	12.05607	10.43829	8.80696	38.27782	25.68859	15.46333	31.47	6.1	0.00	7.54	0.01264	0.01287	0.01624	0.00779	0.00579	0.00636	0.00466	0.01262	0.01676	0.00677	0.00695	0.00877	0.01485	0.01090	0.01192	0.00218	0.00619	0.00866
21400	3.81741	4.53321	2.53617	11.90003	9.66283	8.35843	39.24147	26.01798	13.86838	3.74380	3.99856	3.80839	13.38845	9.89707	8.54346	37.80210	25.51956	13.90788
21560	4.59948	3.14406	3.18654	10.92239	8.92672	7.32944	37.37735	24.57504	13.84301	4.30129	3.20496	2.61009	11.39982	10.21616	8.14281	37.42016	25.42145	14.67879
21730	3.92209	3.65461	3.11218	11.14434	9.51059	7.42366	37.22661	25.64888	14.71116	6.03637	5.73973	2.96905	12.75445	11.58108	8.84704	37.74013	25.37005	17.42182
21890	5.88088	4.89743	3.26717	12.52482	9.37659	9.99277	38.03506	25.69342	15.02559	4.44008	3.33501	3.30723	11.64763	9.75385	7.61744	37.64145	25.01871	13.61059
22050	4.30604	4.20907	3.13667	11.96337	8.53279	7.43468	36.68684	24.28480	13.70135	3.49813	3.37939	2.28638	11.15403	9.10539	7.10101	36.03028	24.43034	13.74784
22220	4.16674	3.11786	2.93039	10.83691	8.83924	7.21115	37.30314	24.88147	13.85240	3.63860	2.89190	2.05376	11.77048	9.58362	8.31571	36.42292	25.30979	13.59052
22380	3.93356	4.38499	2.94272	12.90578	9.59558	8.88816	37.65892	25.09289	14.87830	5.12713	3.43486	2.35181	11.72923	10.18007	7.77398	37.61573	24.84920	15.05603
22540	5.67101	4.87252	3.71221	10.90059	9.81091	9.08621	37.71580	25.16456	15.74632	4.65377	3.37706	3.81159	11.26749	9.04869	8.35880	37.31210	25.62604	14.25096
22710	4.13095	4.41318	3.62822	11.02698	8.85533	7.00547	36.93733	24.43484	13.66221	4.76943	4.28761	3.32406	11.45385	9.47951	7.77268	36.42862	24.43258	13.49622
22870	3.89078	4.21074	2.92048	10.48000	8.95487	7.06560	36.59326	25.35361	13.45953	3.58334	2.66681	2.86027	11.72981	8.77474	7.64573	37.81794	23.96812	13.83346	31.47	6.2	0.00	7.72	0.01264	0.01287	0.01624	0.00779	0.00579	0.00636	0.00466	0.01262	0.01676	0.00677	0.00696	0.00878	0.01485	0.01090	0.01192	0.00218	0.00619	0.00866
23030	4.01405	3.28046	2.61775	10.94663	8.46249	7.09501	36.91770	25.80710	13.79672	3.51447	3.08261	2.55329	11.21505	8.99005	7.42964	36.99611	24.38336	13.54532
23190	3.59683	3.06953	2.50654	11.08628	8.77200	7.53688	37.04131	24.28215	13.59145	3.67557	3.01621	2.42270	11.28195	9.32395	7.52873	36.18792	23.98579	13.24323
23360	3.61414	3.06352	2.32325	10.49763	8.89660	7.89189	36.72920	24.30776	13.49624	3.66678	2.83477	2.33523	11.70337	9.15709	7.90600	36.23953	23.94906	13.17311
23520	4.81467	3.52442	2.74293	12.24098	10.47284	8.68760	36.89187	24.52213	14.17990	5.18611	4.93271	3.78889	11.04651	8.67355	7.29989	37.19879	25.73257	15.20226
23680	3.78279	3.15500	2.47198	12.37887	10.22365	8.25118	37.30377	24.62017	14.07171	3.84230	4.07642	3.50018	11.36215	9.42019	7.79353	36.09512	24.69139	17.34643
23850	4.33954	4.47002	3.62066	14.35063	11.36928	10.06927	38.29400	24.76365	14.71972	3.74073	3.61739	4.18822	11.78937	8.56865	7.33552	36.54773	24.78040	14.39924
24010	3.80790	3.06540	2.29899	11.18871	9.32937	7.85815	37.40606	25.16273	13.85387	3.49260	3.05231	2.69583	11.75106	9.27453	7.48646	37.07791	24.88127	13.35767
24170	3.94419	3.65601	3.25022	10.97237	8.61118	7.26126	36.38705	24.22883	13.33966	3.43059	2.65135	2.20453	10.82628	8.73787	7.50788	35.93783	24.12466	14.15319
24340	3.59752	2.82077	2.25546	11.47808	9.88285	8.75016	36.86519	24.29579	13.35193	4.01073	3.08227	2.34382	11.48548	8.90332	7.96596	36.95246	26.07164	15.31941
24500	6.13196	4.05352	4.04563	11.83532	9.07862	8.41158	36.47039	24.78071	14.60630	4.06737	3.23256	2.17366	11.85133	10.12122	7.88792	38.18847	24.62437	13.91969	31.53	6.1	0.00	7.54	0.01264	0.01287	0.01624	0.00779	0.00580	0.00637	0.00466	0.01262	0.01676	0.00677	0.00696	0.00878	0.01485	0.01090	0.01192	0.00218	0.00619	0.00866
24660	3.83591	3.58055	2.51701	11.66143	10.03924	7.82818	37.49263	24.57200	13.40288	4.11667	2.99617	2.48708	11.18802	9.14427	8.40345	36.26412	23.99724	13.60652
24830	3.58317	2.93524	2.38727	10.85503	8.52187	6.95627	36.43247	24.19023	13.17902	3.67926	2.73475	2.50919	11.00028	8.89166	6.98650	36.15539	23.90799	13.33725
24990	3.36367	2.90728	2.33360	11.43844	8.47792	7.35138	36.81001	24.88565	14.03915	3.58424	2.83292	1.99938	11.32343	9.13012	7.71431	36.51101	24.23941	13.88562
25160	5.24405	3.75260	2.89592	10.53319	9.14408	7.84448	38.00248	25.40380	14.01644	3.24173	2.98061	2.44263	11.07614	8.93532	7.15387	36.55420	24.23371	13.38406
25320	3.57136	2.79230	2.86595	10.44104	8.58739	7.00062	37.14455	24.27850	13.52750	3.41738	3.13916	2.20335	11.23004	10.05008	7.56142	36.02181	24.79963	13.12882
25480	4.08941	3.17239	2.99173	10.90716	8.62005	7.28057	37.48285	24.26700	13.75342	3.85457	4.75131	4.33321	11.17091	9.21122	7.09517	38.78527	24.97723	14.93591
25650	3.50842	2.74737	2.10219	11.49635	9.36209	7.76327	37.51418	24.94354	13.55101	5.17700	3.84815	2.56689	12.17661	9.40863	7.57870	36.46514	24.37577	13.63832
25810	4.09516	3.02547	2.35672	10.88729	8.90700	7.37117	37.53578	24.45632	13.86999	4.55291	3.12766	2.28475	11.06473	8.95734	7.88620	35.99448	24.22889	13.43811
25970	4.84680	3.72514	3.79154	11.32978	10.17908	9.31962	37.23187	25.94516	14.44120	8.00018	3.14216	3.62156	10.75654	9.22362	8.18797	37.02689	26.71600	17.33550
26140	4.23390	3.33110	2.38283	14.57789	10.92097	8.75028	36.48039	25.02142	14.12931	4.38469	5.49568	4.69946	11.48693	9.71882	8.47770	38.08233	25.66908	14.24979	31.47	6.1	0.00	7.54	0.01265	0.01287	0.01624	0.00779	0.00580	0.00637	0.00466	0.01262	0.01676	0.00677	0.00696	0.00878	0.01485	0.01091	0.01192	0.00218	0.00619	0.00866
26300	4.05841	3.36687	2.67088	10.90191	9.06380	7.77486	37.81330	25.92819	14.24181	6.47683	4.34267	2.18191	12.72662	9.17647	8.38144	36.06951	23.99423	14.25084
26460	4.77911	4.38768	4.30428	12.28397	10.83537	8.13854	36.91663	24.83181	13.87798	4.27685	3.94059	3.31521	11.54941	9.78966	8.51119	36.18151	25.00381	15.49947
26630	4.38093	3.60433	2.86472	12.51123	10.35729	7.63794	36.66143	24.69734	14.03462	4.00898	3.43850	3.41860	10.98091	9.14408	7.73836	36.78028	24.43343	14.36645
26790	3.59121	3.20583	2.65558	11.16089	9.46672	8.32986	36.81651	25.13728	13.70868	4.15406	4.58655	3.35840	11.89169	9.02279	8.23757	38.52234	25.40845	13.95249
26950	3.89367	3.31333	2.38384	12.57978	9.31396	7.86139	36.08699	24.02357	13.24297	4.27711	3.81364	3.41658	10.74230	8.97266	7.58241	36.61920	24.58322	13.62648
27120	3.30790	2.97748	2.30015	10.64355	9.60019	7.95331	37.15392	24.80865	13.60864	4.05180	3.61250	2.53634	10.81525	8.72151	7.50472	36.93051	25.06700	13.73538
27280	4.05475	2.93792	2.60100	10.88858	8.61238	7.61991	36.92495	24.96053	13.80703	4.14131	3.21239	2.78846	11.51599	8.94948	7.50997	36.20517	24.59806	14.28246
27440	4.91117	4.33722	3.50675	11.65160	10.62570	7.69454	38.89691	25.78411	14.61300	3.99333	4.05242	4.93708	11.45407	9.24745	8.40662	38.27932	25.85161	13.87859
27600	3.91649	2.92865	2.30558	10.85967	9.24257	7.24729	36.67493	24.60287	14.55527	3.49744	2.77022	1.96576	12.03118	9.79958	8.65185	35.90316	23.90020	13.07452
27770	4.14488	3.28838	2.47527	10.56875	8.63157	7.01625	36.26433	24.49628	13.73947	3.49734	3.40997	2.71055	11.61519	9.22742	7.31013	37.39548	24.11189	13.49524	31.47	6.1	0.00	7.69	0.01264	0.01288	0.01624	0.00779	0.00580	0.00637	0.00466	0.01262	0.01676	0.00677	0.00696	0.00878	0.01485	0.01091	0.01192	0.00218	0.00619	0.00866
27930	3.49169	2.91661	2.49630	10.50668	8.98592	7.92815	36.85436	24.45739	13.53203	5.18051	3.68284	3.97894	10.56780	8.68116	7.80508	37.33444	24.28246	13.76652
28090	3.47346	2.90485	2.10626	11.24829	8.79778	7.47938	37.14310	24.81149	13.53865	4.13588	2.88799	2.28947	10.81070	9.11158	7.23172	35.77979	24.07859	13.26620
28260	4.87214	3.60348	2.85461	10.37430	8.50585	7.10744	37.62812	25.10712	14.49428	3.86779	2.99141	2.60314	10.69964	8.93568	7.40800	36.29927	24.04009	13.13434
28420	3.69862	2.77801	2.40229	11.71478	9.64068	8.22622	36.39413	24.24681	13.53241	3.49198	3.31849	4.17471	10.71346	8.92112	7.16734	36.75844	25.19826	14.28633
28590	3.32857	3.05018	2.19949	11.05646	9.59234	7.45097	36.74207	24.49583	13.35025	4.30916	4.09306	4.48372	10.64324	8.56782	7.05002	36.65586	24.16373	13.56354
28750	3.25077	3.07980	2.36805	11.00515	9.27134	8.55907	37.01633	24.74481	14.09006	4.23644	3.74357	2.90614	11.61103	9.43462	7.25771	36.99693	24.52272	14.34010
28910	3.57512	2.92780	1.93251	10.79927	9.07519	7.23189	36.77207	24.10983	13.11929	3.69890	3.10628	1.93509	10.56522	8.47640	6.89067	36.21381	23.93397	13.96048
29080	3.37797	2.65467	1.81704	11.74068	9.37466	7.88833	36.66880	24.24672	13.16086	3.67454	2.90971	2.12168	10.71371	8.61536	7.26392	36.00537	23.98917	13.47817
29240	3.97412	3.16366	2.29477	11.50816	9.57945	7.70229	36.87090	24.39946	13.87434	4.88707	4.14240	2.78241	10.77192	8.59328	7.57460	36.85613	24.57795	14.54506
29400	3.79620	3.29408	2.49572	11.47710	9.19354	7.24406	36.35336	24.59677	13.67268	4.65341	3.49026	2.59099	10.70303	8.58112	7.02204	36.58984	25.50433	13.90157	31.47	6.1	0.00	7.63	0.01264	0.01287	0.01624	0.00779	0.00579	0.00637	0.00466	0.01262	0.01676	0.00677	0.00697	0.00878	0.01485	0.01090	0.01192	0.00218	0.00619	0.00866
29570	3.81194	3.02589	2.44659	14.37853	10.11482	7.34922	37.49067	24.49203	13.99280	5.56448	3.00376	3.09079	11.09514	8.94455	7.33720	38.20353	26.75752	14.76769
29730	3.79422	4.27160	3.12244	11.71117	9.92511	8.47739	38.23597	25.59121	14.38649	4.83147	3.87094	2.51181	11.02896	8.87011	7.29719	36.43036	24.24386	14.13746
29890	3.61228	2.97148	2.33742	13.18500	10.99486	7.88935	36.33940	24.15839	13.28514	5.12685	3.42644	2.38993	10.79386	8.76360	7.17466	36.62902	24.34151	13.62063
30060	3.90280	2.98104	2.31696	13.30365	9.70138	7.63471	36.82543	24.32764	13.86620	3.40754	3.00136	2.37304	10.94332	8.92643	7.49538	36.29305	24.46718	13.47641
30220	3.99509	3.22970	2.29395	11.25483	10.20236	8.21752	38.08634	25.46601	14.61309	3.57757	2.74440	2.38582	10.82594	8.74525	8.03662	36.81391	24.06530	13.63064
30380	4.14772	2.97495	2.16931	11.55193	9.55950	8.25072	36.75246	24.67286	14.03367	4.03094	3.25935	2.25602	12.18574	8.89321	7.28520	36.94510	24.92794	14.94441
30550	3.67894	2.82782	2.45472	11.16382	9.11646	8.18301	37.15394	24.71242	13.38745	4.02198	5.33806	4.27683	10.52088	8.82129	7.62283	36.68003	24.03573	13.26563
30710	3.30355	3.06728	2.49456	11.99371	9.37090	7.35844	37.22800	24.26772	13.80884	3.99635	3.55840	2.10787	10.85136	8.48135	7.11316	36.54072	24.59702	13.26742
30870	3.78453	3.57581	3.60528	10.75873	9.48787	7.46235	36.73611	24.41559	13.42557	3.84520	4.49895	2.90404	11.00215	9.28723	7.30131	38.61700	26.12958	16.48026
31040	3.73131	2.66182	2.12854	13.27735	9.48660	7.70839	36.85808	24.64075	13.83247	4.26902	3.28097	3.10065	11.46196	9.04140	7.39701	38.60309	25.61992	13.51589	31.47	6.2	0.00	7.59	0.01264	0.01287	0.01624	0.00779	0.00579	0.00637	0.00466	0.01262	0.01676	0.00677	0.00697	0.00878	0.01485	0.01090	0.01192	0.00218	0.00619	0.00866
31200	4.22650	3.33308	2.32147	10.61541	8.52616	7.28494	37.24390	24.22621	13.32183	4.03184	2.93850	3.27602	10.67687	9.47677	7.89168	38.00665	25.05144	14.01840
31360	3.72161	3.50620	2.43602	10.88555	8.82214	7.27048	38.64462	24.77641	13.56868	3.77534	2.82842	2.27366	11.96699	9.24442	7.17639	36.31162	25.02039	14.02713
31530	3.21141	3.05587	2.59503	11.35267	8.86262	7.35816	37.61245	24.47815	13.24785	4.36239	3.27436	3.37803	10.84829	8.72146	8.22304	38.84148	25.93105	15.56466
31690	3.67574	2.86598	2.63022	11.78112	9.29219	7.74907	36.88844	26.42834	14.40662	3.36720	3.25154	2.55119	11.84713	10.45112	9.00336	36.15649	23.99853	13.28459
31850	4.63901	3.23878	3.33738	11.06949	8.80298	7.27656	38.01675	25.20385	13.54268	3.53216	3.02013	2.93480	11.32334	9.80641	8.57348	36.94687	24.85629	15.59129
32020	4.09057	3.18871	2.61988	13.08993	11.51499	9.15172	38.83869	26.03548	15.63806	5.63926	4.43157	4.94818	11.17791	9.06212	7.46174	42.57309	25.03020	14.16851
32180	4.53497	3.43605	2.69212	12.43214	10.65085	11.33639	36.81774	25.50240	14.56268	6.62803	4.84893	2.96579	11.29565	9.21498	8.42452	36.41782	27.32377	15.11032
32340	3.95263	3.32848	2.81848	12.14763	10.95209	8.11132	38.00438	24.93027	13.74838	4.31751	3.93944	2.80026	11.96629	10.36736	8.39680	36.25124	23.85589	13.19073
32510	4.14741	3.88917	2.11216	11.18632	9.11824	7.75100	37.01548	25.03258	13.69644	3.91185	3.16781	2.39655	10.78582	8.67535	7.46675	37.68645	24.16979	13.79991
32670	3.42669	2.95457	2.18780	11.06092	10.06022	8.57153	36.71849	24.98763	13.21872	3.61360	3.83969	3.11336	10.62555	8.75642	7.13127	36.76403	24.29860	13.36662	31.53	6.1	0.00	7.75	0.01264	0.01287	0.01624	0.00779	0.00579	0.00636	0.00466	0.01262	0.01676	0.00677	0.00697	0.00878	0.01485	0.01090	0.01192	0.00218	0.00618	0.00866
32830	3.29893	3.19104	2.37247	10.78008	8.87494	7.22228	36.52659	24.51254	13.70654	3.84904	2.77611	2.17835	11.51006	8.92372	8.52063	36.56407	24.35898	13.85105
33000	4.53683	3.50432	2.93018	11.42649	9.11793	7.27388	37.01996	25.09108	14.11653	3.52766	3.45432	2.79264	11.38126	9.40469	7.66468	36.75961	24.58073	14.09206
33160	3.74222	2.80954	2.07191	11.73643	9.09175	7.65144	37.50166	24.34680	14.01311	4.80539	3.90732	3.19343	10.81481	9.05952	7.33450	38.01733	24.17892	13.69896
33320	3.36114	2.86312	2.24410	12.43237	8.88836	8.60095	36.88097	24.19498	13.45979	4.71920	3.48916	2.40515	11.06033	9.08971	7.35184	37.46787	25.93867	14.47028
33490	3.96472	3.49975	2.53173	11.76061	9.29825	8.44478	37.36744	24.69195	15.13768	4.52480	3.67247	2.36022	11.23195	8.98297	7.83555	38.19606	26.79983	13.72585
33650	3.81875	2.89248	2.37742	12.82684	8.84249	7.15611	36.87085	24.69601	13.94500	4.92906	4.93157	4.38574	11.45526	8.86069	7.38525	39.28792	25.24208	15.21838
33810	4.17255	3.84783	2.36459	11.12220	9.40729	7.87175	36.53726	24.92375	13.77905	7.57585	4.90460	4.47100	11.30007	8.79370	8.10890	37.40008	24.93845	14.68854
33980	3.97778	3.73375	3.00086	11.33275	9.49565	8.23745	37.26269	25.22297	13.97944	4.24523	3.77163	2.34179	10.82447	9.41249	8.94376	37.00727	25.11272	13.84437
34140	3.99254	3.55987	2.64638	10.85219	8.89083	8.09092	39.06718	24.81707	13.64572	3.54019	3.13647	2.28777	10.68285	9.68807	7.90032	36.68620	25.50661	13.33720
34300	3.86300	3.88624	3.75293	11.90464	9.47344	7.61237	37.35067	25.73306	14.59302	4.49181	3.53158	3.49723	10.88417	9.35892	7.58172	36.60346	25.35087	13.61554	31.47	6.1	0.00	7.56	0.01264	0.01288	0.01624	0.00779	0.00579	0.00636	0.00466	0.01262	0.01676	0.00677	0.00696	0.00878	0.01485	0.01091	0.01192	0.00218	0.00618	0.00866
34470	3.65592	2.80368	1.94200	11.67921	10.36721	9.92856	36.84840	24.60751	13.43456	4.13318	3.97752	3.14765	10.92353	9.04608	7.90141	37.40716	24.33235	13.87447
34630	3.57935	3.55118	3.34318	11.01221	9.04745	7.55237	36.59300	25.82317	13.59451	5.24559	3.85560	3.91634	11.00745	9.29325	8.02576	38.44382	26.21880	15.25348
34790	4.20178	3.34548	3.87211	12.54754	10.82750	8.02260	37.69611	25.34996	13.78171	3.99852	3.18256	2.64278	11.22420	9.02986	7.79049	37.45130	24.50695	13.66372
34960	3.79662	3.00693	3.63861	13.34817	10.84086	8.25278	37.96428	25.03379	13.39364	4.17556	2.90342	3.54399	11.69150	9.19252	7.12184	38.20077	26.35273	14.31988
35120	3.65730	3.07616	2.79420	11.86109	8.96684	8.02319	36.97116	25.31007	13.70160	4.22783	4.61488	2.66463	11.57949	8.95214	7.79574	37.08063	24.96074	14.05389
35280	3.86644	4.38714	3.13202	11.88588	11.81912	9.78890	36.35443	24.21868	13.28599	4.68070	4.80691	4.68220	11.36049	9.37587	8.51383	37.39144	24.42687	14.32753
35450	3.47694	3.53133	2.63461	11.22392	9.03999	7.51038	38.71815	26.39687	14.33871	4.48554	3.45177	2.27119	10.97418	10.09484	9.40802	35.76036	23.75910	13.25613
35610	3.96042	4.46164	3.06924	12.81440	9.20187	7.84467	37.62448	24.71317	14.49675	3.22431	3.44894	3.98309	12.30256	10.32153	7.67229	37.00781	24.27712	13.54537
35770	4.71831	4.56247	3.04065	10.90847	8.63837	7.11032	37.68513	25.28823	13.84071	4.19186	3.70838	3.12159	10.84003	8.77941	7.37926	35.96934	23.90095	13.40785
35940	3.50868	2.79980	2.53807	10.94977	9.74667	7.21794	37.24132	24.40828	13.52623	3.71313	2.99124	2.31247	11.21853	9.10606	7.49407	36.39542	23.87962	13.22554	31.53	6.2	0.00	7.59	0.01264	0.01287	0.01624	0.00779	0.00579	0.00637	0.00466	0.01262	0.01676	0.00677	0.00696	0.00878	0.01485	0.01091	0.01192	0.00218	0.00618	0.00866
36100	3.67089	2.98907	2.09091	12.81027	9.74083	7.35327	36.27998	23.94282	13.24391	4.59951	2.92947	1.94460	10.62804	8.83437	7.50625	36.30768	25.22161	13.67891
36260	3.48121	2.96871	1.96997	11.94791	10.03504	8.86286	36.78506	24.16432	13.49889	3.69506	3.23875	4.45751	10.78519	8.86432	7.90846	36.11233	23.92802	13.14260
36420	4.05719	3.26513	3.34313	10.55032	8.89472	8.18646	36.72958	24.65385	14.77086	4.34080	3.05016	3.24457	10.99307	8.55288	7.12961	36.23327	23.76451	13.22230
36590	3.38716	2.72259	2.39392	10.49627	9.26877	8.68189	37.30357	24.28582	13.27552	4.87500	3.57490	2.46780	10.91908	8.84761	7.21923	36.41961	24.43687	13.40961
36750	3.56617	3.03740	1.94281	11.16893	9.18033	8.35642	37.10008	24.01381	13.48981	3.80272	3.10564	2.88116	10.57385	8.74687	7.40925	37.64118	24.80418	13.75312
36920	3.48479	3.10139	2.25731	11.39091	11.18308	8.95409	36.28692	24.79108	13.79853	4.90345	3.36954	3.56910	10.91695	8.83471	7.62089	37.90051	25.57325	14.40317
37080	3.60154	2.77196	2.73533	11.48188	9.26239	7.25780	37.65949	25.40636	13.82696	4.66716	3.82663	2.21220	12.36103	8.90854	7.24543	37.51320	24.13254	13.93263
37240	3.67679	3.75423	3.27910	10.68254	10.17567	8.52123	36.51778	24.22880	13.38834	4.57267	6.88171	3.83842	10.70612	8.73946	7.31054	39.14652	25.57258	15.23121
37410	3.60975	3.07718	2.23613	11.47098	10.53201	8.08497	36.71146	24.45463	13.50024	3.60601	3.52345	4.44024	10.95743	8.63301	6.99005	37.34767	24.77943	15.36619
37570	3.52067	2.86035	2.16548	10.48120	9.23137	7.84495	36.70587	24.54445	13.52488	4.14730	3.93032	3.35228	10.95238	9.03036	7.48683	37.80923	24.05720	13.19100	31.53	6.1	0.00	7.61	0.01264	0.01287	0.01624	0.00779	0.00579	0.00637	0.00466	0.01262	0.01676	0.00677	0.00697	0.00878	0.01484	0.01091	0.01192	0.00218	0.00618	0.00866
37730	3.68832	2.83852	2.51124	10.64928	8.58893	6.96701	37.85299	25.05734	13.67967	3.25537	2.53942	1.96482	10.86805	8.80286	7.51607	35.87615	25.66934	14.30947
37900	3.73734	3.17349	2.55960	10.60649	8.67138	8.03604	36.46102	24.22866	13.54412	4.13023	3.49064	2.97940	10.58096	8.67572	7.14631	36.48374	23.80003	13.24535
38060	3.30722	2.58101	1.90389	10.52670	8.62406	7.49983	37.04913	24.63378	13.88368	3.96015	3.24919	3.16192	10.88443	9.07028	7.43011	37.54117	25.37162	15.59586
38220	4.29546	3.03152	2.80446	13.14458	12.54297	8.44028	36.57912	24.80590	13.73466	3.55621	3.18715	2.32932	10.64399	8.93073	8.03194	35.81563	23.72219	13.05686
38390	4.05352	3.29137	2.81098	10.48140	8.71716	7.34901	37.24388	26.03542	13.86928	3.88602	3.78427	2.92921	11.48251	8.74583	7.20298	36.05307	24.12830	13.49816
38550	5.27260	3.66123	3.74433	11.25720	8.43723	7.17610	36.62658	24.33715	13.67567	3.91571	3.19313	2.45439	11.46753	8.85465	7.40500	35.86536	23.87397	13.66826
38710	3.60925	3.38182	2.64389	13.46126	10.72748	9.51028	37.32343	24.82812	13.74685	4.58307	4.23233	3.18935	11.57551	10.83842	8.29070	38.72199	26.27679	15.39819
38870	5.39007	4.35285	3.37446	12.60564	11.64383	8.33809	37.34366	26.12853	15.28769	4.58631	4.74159	3.69983	12.77642	9.09312	7.79904	36.46369	25.63665	14.01884
39040	4.48368	3.16278	2.77410	10.65416	9.37923	7.74347	37.10640	24.95915	13.61408	4.01921	2.82429	2.58297	10.85868	9.15249	8.24002	37.86339	25.93780	14.61625
39200	4.81850	3.66189	3.20049	10.80801	8.65010	7.11116	37.57121	25.18573	13.54963	3.64936	3.26169	2.56638	11.38649	8.66256	7.79544	35.81903	23.90985	14.09298	31.53	6.1	0.00	7.60	0.01264	0.01287	0.01624	0.00779	0.00579	0.00637	0.00466	0.01262	0.01676	0.00677	0.00697	0.00878	0.01484	0.01091	0.01192	0.00218	0.00618	0.00866
39360	4.11415	4.06637	2.79403	10.57748	8.48310	7.35952	36.84707	24.20206	13.27517	3.64674	3.20639	1.85162	10.50961	8.58664	8.11677	36.00731	23.87973	13.69813
39530	3.33154	2.89895	2.16789	12.04298	9.34475	7.49299	36.52195	24.59898	13.53374	3.30367	2.66849	1.88787	10.79825	8.98333	7.53922	36.16999	24.81832	13.65528
39690	4.06823	3.38127	2.55111	10.59228	8.68494	7.21681	37.23068	24.43600	13.30504	3.23839	2.88365	2.24144	11.11690	8.80446	7.07669	35.79088	24.21026	13.34675
39850	3.62546	3.08673	2.43455	10.76083	9.00876	9.99670	37.05858	24.14804	13.64390	4.10828	3.66457	2.55727	10.68559	8.42182	7.16224	36.45332	23.87677	13.65640
40020	3.49638	3.11886	1.81458	11.17476	9.29320	7.77696	36.60852	24.18145	13.47287	3.40603	3.08079	2.40249	10.75132	8.67019	7.70524	36.86339	24.43514	13.55229
40180	3.67123	2.95641	2.29664	11.45606	8.84785	8.68860	36.47585	24.54851	13.35315	4.10278	3.39726	2.52225	10.94240	9.42147	8.38254	36.18807	23.98561	13.51294
40350	3.69444	3.43720	2.55458	11.04885	8.94408	7.29556	36.55399	24.22289	13.58921	3.87469	3.10973	2.23903	11.11715	9.15051	7.28716	37.07415	24.21712	13.30725
40510	4.50972	3.08018	2.66636	11.50064	9.14489	7.29664	37.56135	24.59341	13.93232	3.42415	2.86926	2.12609	10.67761	9.27458	7.63771	36.01552	24.00932	14.37077
40670	3.74947	3.01697	2.00531	11.33035	8.92891	7.90503	36.71303	24.33088	13.35628	3.44019	2.67770	2.31179	10.88516	8.65181	7.31431	37.19198	24.54121	13.06524
40840	3.71765	3.13691	2.36325	10.55729	8.89674	7.18077	36.58997	24.38873	13.28327	3.69880	3.16709	3.52610	10.84896	8.61025	7.20663	36.29273	24.55719	13.50968	31.53	6.1	0.00	7.62	0.01264	0.01287	0.01624	0.00779	0.00579	0.00636	0.00466	0.01262	0.01676	0.00677	0.00697	0.00878	0.01485	0.01091	0.01192	0.00218	0.00618	0.00866
41000	3.76959	2.61740	1.98777	12.42630	9.42807	7.39392	36.49824	24.21503	13.30764	3.23985	2.77243	2.16977	10.84543	8.76258	7.60021	36.65516	24.67786	14.12017
41160	3.79895	3.10984	2.82778	10.91086	8.90974	7.19724	36.69881	24.19203	13.28766	3.31359	2.95193	2.44680	11.35375	9.45932	7.99194	36.75485	24.90095	13.37250
41330	3.69184	2.99975	2.52953	11.39096	9.36998	7.16332	36.41878	24.40234	13.60385	4.48170	3.59885	3.52193	10.62916	8.57308	7.74988	36.96630	25.00689	15.02566
41490	3.48373	3.10392	2.37531	12.08473	9.06328	7.49505	37.76277	24.47253	13.21601	4.12090	3.71697	3.98080	11.63268	9.13569	7.92390	39.09666	27.18521	14.91167
41650	3.65385	3.55361	3.05815	11.94148	9.37261	7.96140	38.44652	25.78408	15.30394	5.84442	4.86468	3.04400	12.20998	10.72690	8.33795	37.27190	23.91453	13.47298
41820	4.51445	3.88914	2.04824	11.43918	8.71895	7.21445	36.30076	24.75454	15.24018	3.55250	3.82644	4.16989	10.84943	9.26820	7.27682	36.58249	26.27668	15.54583
41980	3.51104	2.65256	2.46084	10.78217	9.04252	8.29807	36.40033	25.26588	13.63903	3.81900	2.75885	2.56125	11.14205	8.95575	7.19490	36.02209	24.17108	13.89081
42140	3.35055	2.75697	2.01100	11.29035	10.35720	7.56279	36.09687	24.05839	13.18961	3.84608	3.21583	2.06698	11.62745	8.82137	7.08781	36.34210	23.85029	13.16019
42310	3.41710	2.70166	2.13954	10.61308	8.89059	7.31696	36.82257	24.21442	13.14421	3.93136	3.28243	2.13267	10.54441	8.57434	7.32769	35.91450	23.76033	13.11677
42470	3.26585	2.63297	1.97495	10.63295	9.01100	8.24469	36.74010	24.28010	13.33679	4.81012	3.40599	3.16212	12.71832	9.14656	7.26632	36.79389	24.36533	13.37223	31.53	6.1	0.00	7.53	0.01264	0.01287	0.01624	0.00779	0.00579	0.00637	0.00466	0.01262	0.01676	0.00678	0.00697	0.00879	0.01485	0.01091	0.01192	0.00218	0.00618	0.00866
42630	3.36582	2.68326	2.14402	10.45004	8.48128	7.73656	36.84049	24.29188	13.39253	3.91751	3.09470	2.97483	10.92445	9.15792	7.07513	37.30060	24.50318	13.40759
42800	3.54771	3.22540	2.76124	11.55019	8.90997	6.94786	36.74737	24.12045	13.49613	3.22712	2.96759	2.07025	10.51869	8.87417	7.38915	36.08446	23.77310	13.19036
42960	3.26502	3.53276	2.01306	10.67510	8.58256	7.25004	36.41665	24.52416	14.00429	3.39182	2.68147	1.96710	10.90243	9.69107	7.08240	35.96801	23.83445	13.00606
43120	3.74892	2.81444	2.17346	10.90824	8.41265	6.88359	36.84416	24.57871	13.82178	3.42654	2.79965	2.02898	11.26525	9.36720	7.35624	36.66310	24.72616	13.75905
43290	3.47598	2.94599	2.07681	10.55932	8.73368	7.00371	36.25964	24.44856	13.76577	3.40844	2.73838	2.19570	10.70751	8.70114	7.65153	36.87857	23.96583	13.30080
43450	3.68699	2.80303	2.06671	10.53898	8.66085	7.18126	36.47220	24.18115	13.59281	4.40647	3.87488	2.57447	10.63697	8.67937	6.89803	37.64574	24.87176	14.89472
43610	3.39290	2.78709	1.97999	10.59719	8.86046	7.28657	36.79473	24.36915	13.48445	3.63617	2.84078	1.89354	11.59622	8.96293	7.17239	35.75509	23.98478	13.40553
43780	4.57326	2.89254	1.95681	11.19293	8.65399	7.05841	36.46336	24.36782	13.24544	3.58760	3.51445	2.89066	10.51739	8.42752	7.20631	36.40510	24.32128	13.67849
43940	3.33653	2.67685	1.99761	10.47382	8.53220	7.03964	36.76829	24.15516	13.47223	3.19181	2.54249	2.28567	10.70019	8.85282	7.20552	36.31868	23.80737	13.11717
44100	3.52819	2.80008	1.94649	10.74240	8.67532	6.88725	36.96525	25.12170	13.76253	3.35020	3.35570	2.62344	10.83431	8.71089	7.25569	36.13496	24.44848	13.80798	31.53	6.1	0.00	7.57	0.01264	0.01287	0.01624	0.00779	0.00579	0.00637	0.00466	0.01262	0.01676	0.00678	0.00697	0.00879	0.01484	0.01091	0.01192	0.00218	0.00619	0.00866
44270	3.83942	2.59985	1.99531	11.64513	8.97575	7.74956	37.16785	24.65173	13.62582	3.88943	2.88137	2.48090	11.79539	9.57037	7.67162	36.84032	24.01679	13.46572
44430	4.38556	3.26805	2.94495	10.61420	8.62060	7.60580	36.97733	25.36499	14.53902	3.58139	3.13627	2.51845	11.63527	9.76094	7.96714	36.52595	24.60021	14.55015
44590	5.17331	4.33334	3.03953	12.24775	10.03226	7.52685	38.33964	26.70064	14.68805	3.47416	3.14666	2.61678	11.12746	9.23923	7.98301	37.26514	24.76259	13.95510
44760	4.16642	3.25884	2.53286	11.40067	9.41880	7.40523	38.28970	26.48068	15.06579	3.83583	2.63477	1.85021	11.69592	8.92517	7.85512	35.70682	23.89916	13.01505
44920	3.63365	2.68223	1.98451	10.42285	8.60314	7.31670	37.48943	24.78123	13.50870	3.57278	3.05728	2.29383	10.85564	8.90160	7.11634	36.12804	24.17368	13.57716
45080	3.78807	3.06172	2.65317	10.54513	8.57998	7.04313	37.48259	25.53217	14.38183	3.37504	2.63198	2.23672	10.94728	8.61397	7.03062	35.86456	23.75666	13.30050
45250	3.50239	2.68768	2.00243	10.79859	8.61972	6.96559	36.69051	24.37745	13.59586	3.60534	2.71899	1.86326	10.64320	8.46575	6.90091	35.85110	23.68983	13.34161
45410	3.15797	2.49898	1.76149	10.62145	8.71902	7.10391	36.44248	24.05712	13.17461	3.38382	2.92305	1.97863	10.54290	8.43941	6.89075	35.78271	24.44713	13.27795
45570	3.16915	2.64489	1.83200	10.49651	8.58591	7.13189	36.51767	24.22581	13.23517	3.39488	2.64741	2.07296	10.85416	9.01448	7.36464	35.81215	23.86909	13.12496
45740	3.53670	2.89696	2.22071	10.81050	8.81949	7.41310	36.43008	24.34569	13.45382	3.72452	2.69807	2.88002	11.88183	9.04951	7.38338	36.63037	24.49477	14.48496	31.47	6.1	0.00	7.60	0.01265	0.01287	0.01624	0.00779	0.00579	0.00637	0.00466	0.01262	0.01676	0.00677	0.00697	0.00879	0.01484	0.01090	0.01192	0.00218	0.00619	0.00866
45900	3.79686	3.09137	2.60261	10.85290	8.69331	7.39193	36.67874	25.44243	13.97414	3.42964	2.88608	2.68618	12.17624	9.46412	8.59363	39.54459	26.50663	14.89004
46060	3.76065	3.65450	3.31677	11.29128	9.00531	7.14065	37.52190	24.49266	13.90835	4.60120	3.55562	3.91707	12.06118	9.55674	7.35995	36.83017	24.31864	13.09347
46230	4.36483	3.31670	2.13957	10.59867	8.81646	7.42316	37.63248	24.85032	13.64336	5.19965	3.77581	2.08395	11.05001	9.76644	8.03080	36.17403	24.19117	13.34134
46390	3.82224	2.87082	2.15772	11.16050	9.04839	7.86703	37.00436	24.30595	13.50677	3.92993	3.15834	2.35221	10.80136	9.18215	7.42955	36.42166	24.05481	13.11934
46550	3.57662	3.11407	2.26536	10.62975	8.58133	7.16771	36.58086	24.06387	13.17297	4.23709	3.12028	2.78738	10.86597	8.91613	7.01420	36.96763	24.86519	13.53280
46720	3.46231	2.61406	1.88951	11.09341	8.59686	7.13660	36.59248	24.19725	13.32379	3.42394	2.96626	2.04410	10.87612	8.70011	7.22202	35.82715	23.88888	13.12856
46880	4.16540	4.30483	3.57748	11.39397	8.62316	7.74526	38.56079	25.82910	14.83919	5.08381	3.26130	2.87115	10.48807	9.12593	8.00889	36.84205	24.27171	13.48255
47040	4.17928	3.53379	3.20199	10.38688	8.49507	7.11969	36.69319	24.44946	14.04953	4.20741	3.31071	2.16233	11.58470	8.79993	7.29572	37.34631	24.38819	13.84052
47210	4.00564	3.15723	2.29367	10.47603	8.57185	7.14993	36.61577	24.01825	13.18086	3.26523	2.73066	2.39364	10.51414	8.51859	6.93227	35.68058	23.71718	13.03679
47370	3.42321	3.07431	2.14104	12.56826	9.32609	7.00380	36.57109	24.35171	13.42357	3.43496	3.07564	2.49723	11.24331	8.81783	7.44708	37.53358	24.27013	13.16844	31.53	6.2	0.00	7.70	0.01265	0.01287	0.01624	0.00779	0.00579	0.00636	0.00466	0.01262	0.01676	0.00677	0.00697	0.00879	0.01484	0.01090	0.01192	0.00218	0.00618	0.00866
47530	3.56050	2.78644	2.34976	10.58197	8.59158	7.20679	37.46191	24.48423	13.68299	3.43956	2.70405	3.19598	11.09918	8.91967	7.35899	36.75754	24.31174	13.45809
47690	3.72568	3.19281	2.28227	12.21268	10.35100	7.97368	37.12709	24.44898	14.21065	4.93825	3.86116	3.78278	11.85397	9.18939	7.64513	36.79147	24.76793	14.03315
47860	3.75482	3.24022	2.04954	10.85609	8.84320	7.28787	37.36096	24.34530	13.82972	4.48579	3.64334	3.27090	10.86443	8.75539	7.45834	36.96739	24.16182	13.32870
48020	3.93660	3.32811	2.49398	11.44061	9.38984	7.46268	37.18861	25.12393	13.83036	4.55463	2.68329	2.97069	11.01150	8.86952	7.31063	35.83394	24.40457	13.34030
48180	4.73540	3.46405	2.62490	12.56819	9.88018	8.55819	36.65803	24.41125	13.31002	3.52968	2.83158	2.48074	10.58371	8.58155	7.76352	36.28017	23.75793	13.30959
48350	3.38089	3.27603	2.40684	10.46743	9.13369	7.57146	36.57377	24.17730	13.23956	3.38940	2.83884	2.83596	10.60671	8.51752	7.06655	36.80774	24.69034	13.77793
48510	3.26558	3.99997	2.36869	10.80641	8.62151	7.17533	37.39385	25.64254	14.13091	3.71029	3.03056	2.17282	12.81620	10.61062	9.13969	37.99113	24.97616	13.35881
48680	3.44905	2.87149	2.13173	10.70744	8.88533	8.30223	37.30510	24.72870	13.34680	3.85675	3.09730	2.02809	10.79182	9.24872	8.18704	36.47154	24.37947	13.32304
48840	4.79627	4.16201	3.10512	10.65211	8.57884	7.13115	37.31183	25.18913	13.93302	3.40047	2.60366	1.98899	11.08895	9.44877	7.64280	36.18514	25.59714	13.30147
49000	3.81967	2.98691	2.31811	10.59327	8.99611	7.29393	37.25496	24.59127	14.15539	3.44343	3.08567	1.98471	10.57894	8.48619	6.93206	36.16794	24.39826	13.20500	31.53	6.1	0.00	7.59	0.01264	0.01287	0.01624	0.00779	0.00579	0.00636	0.00466	0.01262	0.01676	0.00677	0.00697	0.00879	0.01484	0.01090	0.01192	0.00218	0.00618	0.00866
49170	4.05680	2.97084	2.37480	10.46683	9.37331	7.79150	37.03378	24.13878	13.12979	3.74255	2.95581	1.93813	10.52949	8.75842	7.06880	36.20690	23.96990	13.27786
49330	3.57583	2.74413	2.68698	10.49281	8.51705	7.07407	36.95370	25.05354	13.22424	3.20630	2.50843	1.91923	10.50702	8.58367	7.11628	35.89669	23.77721	14.41597
49490	4.03092	3.12855	2.44222	11.01578	9.12058	7.57475	36.92130	24.39280	14.47751	4.25508	4.76443	3.80167	12.11351	10.08299	8.01508	36.76152	24.09747	13.25026
49660	4.28137	3.64980	2.75743	11.57268	8.79077	7.05182	37.09943	25.14883	13.49419	3.23313	3.19498	2.42838	10.94912	8.97997	7.78176	36.01224	23.85956	13.35833
49820	3.81574	3.32217	2.22033	10.53334	8.86178	7.20918	36.85680	24.38180	13.67149	4.08002	3.48687	2.49041	11.91595	10.02345	8.08538	36.35578	23.80309	13.03937
49980	3.20254	2.76080	2.44120	10.77653	11.31201	9.73340	37.82727	25.59295	14.95517	4.57027	2.91774	3.35838	11.41582	9.17442	7.64723	36.84439	25.48021	17.07880
50150	3.82129	3.48394	2.08014	12.90033	8.65508	7.27625	36.71182	24.08849	13.14415	4.66137	2.83779	2.33549	10.58226	8.49264	7.03378	36.09737	24.01615	13.41171
50310	3.38975	2.74463	2.51867	10.45805	8.80713	7.37278	37.49288	24.57194	13.79028	3.48896	3.29582	2.78195	11.41788	9.33237	7.82374	35.82263	23.72648	13.28832
50470	3.52236	3.18238	2.64463	10.39487	8.41101	7.37537	36.28215	24.11996	13.18030	4.58981	3.91796	2.96796	11.78317	9.43621	8.70260	35.83874	24.17597	13.50864
50640	3.71942	2.81268	2.19337	10.71218	8.47686	7.03749	37.18085	25.62208	14.14256	3.26421	2.67760	2.01767	10.65639	8.51514	6.98557	35.75014	24.19581	13.07847	31.53	6.2	0.00	7.62	0.01264	0.01287	0.01624	0.00779	0.00579	0.00636	0.00466	0.01262	0.01676	0.00677	0.00697	0.00879	0.01484	0.01090	0.01192	0.00218	0.00618	0.00866
50800	3.52370	2.88555	1.94638	10.64718	8.62967	8.90074	36.29161	24.24797	13.52991	4.43329	3.06809	2.11530	10.41259	8.45230	7.11768	36.03798	23.95599	13.58284
50960	3.09527	2.70861	2.03598	10.84879	8.58629	7.37513	36.45177	24.08533	13.25680	3.32868	2.71593	2.03037	10.74657	8.63270	7.40326	35.66921	23.70887	13.01302
51130	3.19247	2.62768	1.80995	10.59525	8.57233	7.03769	36.76724	24.18773	13.02551	3.55625	2.90650	2.32406	10.59169	9.03350	7.55259	36.62667	25.54298	15.43366
51290	3.65876	3.12721	2.53448	13.50309	9.21293	7.08583	36.42094	24.68158	13.42462	3.68941	3.77626	3.33269	11.03548	8.62466	7.20149	36.35131	24.15888	14.50483
51450	3.80142	3.22849	2.55888	11.02376	8.63471	7.22930	36.31595	24.05068	13.09515	7.37325	2.74817	1.95981	10.55637	8.42896	6.96546	35.75147	23.84369	13.39145
51620	3.27138	2.71874	1.80465	10.66058	8.38564	6.91625	36.59930	24.28871	13.35946	3.52308	3.93726	4.48845	11.22425	8.70271	7.17178	35.84786	23.81742	13.13645
51780	3.28647	2.84045	2.31847	11.65196	9.25753	8.65658	36.63159	24.51007	13.72027	4.93532	3.33093	2.89789	10.81584	8.49622	7.25168	36.57591	24.07806	13.30419
51940	3.72103	3.14951	2.45325	10.66618	9.36666	7.85683	36.59393	24.40855	14.00256	3.54073	3.03266	3.51441	11.15815	9.09989	7.78504	36.64123	24.38717	14.84599
52100	4.03342	2.67233	2.12756	11.00212	9.29688	8.11101	36.70913	25.44883	13.94383	3.81775	4.93122	3.99034	11.24209	8.95766	8.44387	37.02872	26.61237	14.28172
52270	4.14181	3.59398	2.71412	10.83305	8.58305	7.24092	36.91244	24.59670	14.00912	3.57966	3.29096	2.69323	10.62380	8.80846	7.29089	35.94816	24.85411	14.30691	31.53	6.1	0.00	7.69	0.01265	0.01287	0.01624	0.00779	0.00579	0.00637	0.00466	0.01262	0.01676	0.00677	0.00697	0.00878	0.01485	0.01090	0.01192	0.00218	0.00618	0.00866
52430	3.40323	3.17877	2.02168	11.54164	9.52579	7.24604	36.57555	23.98558	13.32125	3.63129	2.73542	2.06084	11.39517	9.12567	8.06496	36.87303	24.65644	13.18215
52600	3.46372	2.96469	2.47729	10.53831	8.75051	7.73408	36.62030	24.40421	13.38123	3.55091	3.42261	3.77649	11.13684	9.09655	7.10451	35.92372	25.39817	13.36271
52760	4.04066	3.39014	2.22915	10.77620	9.07947	7.74505	37.68697	25.35443	14.74231	3.18237	2.54463	1.90563	11.15026	9.01562	7.57101	36.11121	23.93496	13.48953
52920	3.45515	3.05448	2.30153	10.87761	8.56056	7.27164	36.40819	24.52971	14.13574	3.46248	2.83408	3.02301	10.65581	9.91635	7.55962	37.82643	24.56653	13.82979
53090	3.98195	3.85552	3.19322	13.30965	10.09580	7.87551	38.23984	25.76942	15.15213	4.51225	5.26576	5.68282	11.25671	10.17727	8.41334	39.09962	25.51534	13.73810
53250	4.57152	3.40154	2.04197	10.58846	8.65137	7.45401	36.55949	24.28674	14.00667	3.37304	3.07332	2.30393	11.11596	9.67335	7.83250	36.18887	23.82121	13.31847
53410	4.07434	3.43720	2.40649	11.16493	9.13143	7.66117	36.69412	24.23736	13.38948	3.38682	2.60842	2.00111	10.59768	8.60812	7.19057	36.12503	23.84932	14.40442
53580	3.34183	2.59304	1.83850	10.99080	9.23823	7.74084	36.89491	25.09181	13.37271	4.23858	3.74092	2.75254	11.05394	9.08397	7.25985	36.59517	24.43496	14.82205
53740	3.52733	2.70730	2.38497	11.49638	9.91963	8.04242	36.31554	24.81590	14.05780	3.45460	2.94012	2.51258	11.17000	8.91027	7.25807	36.73828	24.43496	13.80423
53900	3.44498	2.73733	2.41378	10.40805	8.42296	7.05927	37.00870	24.35927	13.29548	3.33821	2.80462	1.99362	10.48362	8.70323	7.04909	36.31636	24.36843	13.25675	31.53	6.1	0.00	7.65	0.01265	0.01287	0.01624	0.00779	0.00579	0.00637	0.00466	0.01262	0.01676	0.00677	0.00697	0.00879	0.01485	0.01090	0.01192	0.00218	0.00618	0.00866
54070	4.17103	3.13098	2.03141	11.08644	8.90409	7.26706	37.12783	24.90137	14.03757	3.65574	5.13074	2.39228	11.20512	9.23870	7.93789	36.49850	26.64687	15.71522
54230	3.81378	3.08339	2.56475	11.69087	9.57872	7.98902	36.61287	24.76513	13.38628	4.09937	3.50168	2.38784	11.04572	9.03894	7.52875	35.97265	24.48400	13.84990
54390	3.94597	2.99729	2.59506	10.65027	9.56274	10.00987	37.17133	24.94950	13.62189	3.60959	2.93980	2.33674	10.85582	8.69927	7.37987	35.78237	23.89459	13.47386
54560	3.34847	2.58977	1.90265	10.84853	8.92241	7.66322	36.75186	24.31736	14.25574	3.59650	3.00467	2.44668	10.52342	8.52756	7.36893	35.84674	24.04087	13.91322
54720	3.28437	2.78499	2.17352	10.35871	8.63693	7.06062	36.71104	24.75297	13.44652	3.22491	2.62711	1.92559	10.48674	8.49248	7.03817	36.59372	23.96255	13.16461
54880	3.27810	2.66384	1.96255	10.36670	8.42259	7.09266	36.87163	24.39805	13.29061	3.27815	2.65797	1.83147	10.79375	8.76041	7.13139	35.70780	23.68139	12.97607
55050	3.27343	2.75631	2.19035	10.57209	8.71505	6.88827	36.72282	24.05408	13.19833	3.40675	2.75135	2.35046	10.52463	8.57670	6.90006	35.77302	23.81137	13.04802
55210	3.15938	2.54936	1.88021	10.52115	8.80142	7.64046	36.89005	24.07036	13.10084	3.32218	2.72691	2.86491	10.38135	8.40175	6.98637	36.17495	24.09194	13.21789
55370	3.69798	3.19381	2.25153	10.43896	8.60341	7.01477	37.13727	23.99561	13.11750	5.53786	3.24524	2.68658	10.98190	8.54715	7.06910	36.00130	24.60167	14.13311
55540	3.53572	3.08288	2.84350	10.65646	9.15969	8.32264	36.94476	24.05322	13.05225	3.88067	2.65585	4.33451	10.43872	8.37792	7.00692	37.88208	26.48135	14.80749	31.53	6.2	0.00	6.73	0.01265	0.01287	0.01624	0.00779	0.00579	0.00637	0.00466	0.01262	0.01676	0.00677	0.00697	0.00878	0.01485	0.01090	0.01192	0.00218	0.00618	0.00866
55700	3.51652	2.85187	1.98488	11.48965	9.15942	7.47644	36.96794	24.40106	13.52134	4.18855	3.51145	3.06092	11.13400	9.22936	7.97503	37.53520	24.94820	13.48102
55870	3.52684	2.79629	2.27873	10.68465	9.12367	7.53481	36.82230	25.04501	14.26279	3.91594	3.40372	2.59459	10.46282	8.43379	6.96409	35.89338	23.83732	12.99677
56030	3.12523	2.47693	2.04079	10.78086	8.84454	7.76812	36.74391	24.40204	13.36352	4.48580	3.03193	2.06325	10.90819	9.13955	7.32069	36.85027	24.85656	13.60503
56190	3.20606	2.62178	1.91476	10.59948	8.66309	7.58595	36.68778	24.08787	13.96985	4.61102	4.23522	2.95053	10.56113	9.32979	7.67533	37.29904	24.69642	13.98988
56360	3.76568	3.25849	2.68196	11.13770	8.94848	7.67432	37.51956	25.17245	13.82198	3.24892	2.62612	2.08937	12.53636	10.29996	8.80361	35.94760	23.81149	13.04796
56520	4.11023	4.84016	4.91631	10.76223	8.61789	7.09114	38.46775	25.84461	13.88768	3.45567	3.03072	2.47093	11.77283	9.22507	7.73203	37.25712	25.11836	13.94761
56680	4.39314	2.90188	1.98500	10.63595	9.73894	7.92328	36.93457	24.47286	13.52592	3.51540	3.28972	2.41439	11.82933	9.10382	7.47368	36.41934	24.02563	13.44287
56850	3.20405	2.58798	1.89977	11.25321	8.52392	7.29570	36.95588	24.44080	13.33513	3.46037	2.61939	2.54236	10.57026	8.68752	7.01605	35.97482	25.30627	13.59382
57010	3.80489	3.17742	2.68627	10.83462	8.59683	7.32811	36.88288	24.84889	14.34554	3.43398	2.53447	2.30878	12.33626	10.19825	8.35026	36.03634	24.02177	13.01179
57170	4.37296	3.15297	2.51084	10.69476	8.87313	7.20537	37.82013	25.15683	13.93986	3.39322	2.72445	2.26498	10.57478	8.69657	7.54570	36.07261	24.40126	14.79843	31.53	6.2	0.00	7.60	0.01265	0.01288	0.01624	0.00779	0.00579	0.00636	0.00466	0.01262	0.01676	0.00677	0.00697	0.00879	0.01484	0.01090	0.01192	0.00218	0.00618	0.00866
57330	3.31362	2.68217	2.22244	11.68910	9.83757	8.05413	37.35116	24.87050	14.05338	3.73372	2.81248	2.02006	10.81240	9.09659	7.32082	36.97355	24.39487	13.65362
57500	3.53014	3.11461	2.17772	11.07981	9.00430	7.63049	37.24276	24.38592	13.51959	3.70330	2.81500	1.94050	10.91826	8.57428	7.48759	35.73832	23.69812	13.12762
57660	3.56518	2.66207	2.29793	10.93168	8.72864	7.36599	37.01822	25.47441	13.41738	3.91071	3.19853	2.07100	10.64484	8.79793	7.40428	36.30231	23.96888	13.13688
57830	3.31633	2.99465	2.40972	10.55370	8.51542	7.38983	36.56320	24.55333	13.52240	3.46675	2.86157	2.17281	11.24544	8.71342	7.17830	36.15137	24.78078	13.90784
57990	3.38465	2.72515	1.95560	11.16172	9.25129	7.71555	36.57480	24.15526	13.10613	4.17835	2.87010	2.08576	10.67773	8.44283	6.96771	35.96175	24.36326	13.38617
58150	3.54381	2.72230	1.95895	10.54958	8.70177	7.43656	37.04344	24.34523	13.66985	3.43798	3.00587	2.43596	10.78107	8.82246	7.40838	37.63019	24.60545	14.14592
58320	3.44514	3.12010	2.20791	11.29274	9.15924	7.34741	36.45504	24.57335	13.84128	3.80245	2.95002	2.33399	11.04891	9.09047	7.41108	36.48278	24.19664	14.45595
58480	3.41526	2.68544	2.01438	11.97034	9.89137	10.63531	37.43640	24.35556	13.42272	5.78213	3.15378	2.31177	11.24289	9.72081	8.49800	36.18472	24.24704	13.04897
58640	3.95089	2.89822	1.90300	10.74610	8.49496	7.30968	36.79314	24.54324	13.16281	3.72903	2.57986	2.03770	10.86591	9.10931	7.08340	36.23355	25.00101	14.72183
58810	3.22814	2.97429	2.11315	10.63664	8.52104	6.95158	36.49237	24.09510	13.24733	3.32391	2.63682	2.21852	10.41635	8.39395	6.98307	35.78499	23.97604	13.38297	31.53	6.1	0.00	6.73	0.01265	0.01287	0.01624	0.00779	0.00579	0.00637	0.00466	0.01262	0.01676	0.00677	0.00697	0.00878	0.01485	0.01090	0.01192	0.00218	0.00618	0.00866
58970	3.13733	2.48495	1.76542	10.71562	8.83665	7.88661	36.45349	24.04763	13.01979	3.66242	2.71219	2.23615	10.68933	8.60841	7.00619	36.13198	24.13148	13.46573
59130	3.07272	2.50359	1.83893	10.81201	9.01354	7.65644	36.58934	23.99909	13.06825	3.89712	3.39521	2.46571	10.45578	8.35988	6.88629	35.73429	23.81821	13.11216
59300	3.17546	2.53704	1.81773	10.39878	8.56341	6.93621	36.61978	24.05515	13.05185	3.19537	3.11817	3.38262	10.43132	8.43467	7.31675	35.80641	24.04829	13.84091
59460	4.41580	3.94757	3.36407	10.72613	8.65391	7.61614	36.87682	24.30428	13.38170	3.83770	3.14218	2.22122	10.95021	8.78159	7.29542	36.53749	23.83085	13.04154
59620	4.03178	3.71572	2.14157	10.51724	8.44746	6.91928	37.65626	24.46192	13.46959	3.38168	2.69208	2.06449	11.26554	8.94837	7.92667	37.13617	23.93493	13.24362
59790	3.47535	3.04740	2.18710	13.08812	9.68042	8.80928	37.06348	25.19488	13.69717	4.36907	3.15632	6.06788	10.49860	9.08089	7.31301	38.94715	24.81309	14.38657
59950	3.79771	3.05267	2.05625	14.68745	13.58182	7.73915	37.28240	24.19774	13.30616	5.12717	5.90213	4.11657	10.84393	9.10450	7.26495	39.20738	25.03611	14.44603
60110	3.32967	3.12980	2.13964	11.39012	8.66983	7.14006	36.88603	24.25572	13.36402	3.40594	3.63896	2.88845	10.72312	8.68647	7.28449	35.96174	23.90729	13.11773
60270	3.38756	2.74697	1.88421	10.99635	8.55441	7.02737	36.83276	24.25686	13.15709	3.16373	2.60653	2.11425	10.58236	8.79926	7.07999	35.84939	24.00745	13.05908
60440	3.92943	3.13158	2.72672	10.41340	8.46316	6.95120	36.82443	24.31559	13.39311	3.77170	3.14917	2.59921	10.66775	8.85668	7.00002	35.77897	23.73275	13.36847	31.58	6.2	0.00	7.18	0.01265	0.01287	0.01624	0.00779	0.00579	0.00637	0.00466	0.01262	0.01676	0.00678	0.00697	0.00879	0.01485	0.01090	0.01192	0.00218	0.00618	0.00866
60600	3.24815	2.66232	2.00189	10.44314	8.89530	7.08637	36.11025	25.53298	13.54991	3.51815	3.13469	2.03856	11.09120	9.22348	6.98722	35.95148	24.21698	13.57967
60760	3.37118	2.94248	1.98087	11.00967	8.53033	6.92341	36.46141	24.12590	13.26248	3.15390	2.50750	2.11721	11.23872	9.53637	7.16069	35.86889	24.06685	13.21162
60930	3.42112	2.82847	2.25961	10.42515	8.41752	6.94100	36.97192	24.82459	13.67689	3.24843	2.83135	2.05903	10.63173	8.58697	7.14408	35.80707	23.99062	13.13715
61090	3.34027	2.67660	1.89143	10.37865	8.47698	7.03673	36.98029	24.28819	13.21728	3.30042	2.63604	2.12288	10.62152	8.88446	7.12333	35.74828	23.74361	13.04923
61250	3.48680	2.66551	2.11265	10.36759	8.41665	6.96758	36.49854	24.35686	13.21002	3.24456	3.87313	2.20645	10.56992	8.57872	8.38721	36.29162	26.34861	15.08746
61420	3.34541	2.89219	2.30292	11.40362	9.51289	7.34753	36.51804	24.87103	14.18929	3.46862	3.15598	1.86801	11.10283	9.51507	9.25363	35.89454	23.78548	13.43286
61580	4.23709	3.37360	2.54325	10.66143	9.68572	8.16615	37.16319	25.41506	13.41843	3.39740	2.75349	2.44483	10.58474	8.68473	7.09084	36.52498	24.05636	13.68960
61740	3.51760	3.02395	2.07615	10.65964	8.87612	7.09831	36.50208	24.22843	13.41222	3.41567	2.67073	2.21672	10.77338	8.50150	7.09872	35.96644	24.02723	13.47270
61910	3.26587	3.57426	2.77960	10.45429	8.73455	8.75967	36.50385	24.43382	14.25874	5.07109	2.85787	2.61736	11.40461	8.67105	7.06683	37.96574	24.84720	14.11387
62070	3.86499	2.95032	2.10150	10.84198	8.87973	9.03984	36.65542	24.22224	13.34372	3.30534	2.55830	1.88073	11.26815	8.88973	7.45161	35.70849	23.84778	13.18498	31.53	6.1	0.00	7.62	0.01265	0.01287	0.01624	0.00779	0.00579	0.00637	0.00466	0.01262	0.01676	0.00678	0.00697	0.00879	0.01485	0.01090	0.01192	0.00218	0.00618	0.00866
