WetView ver 7.1	07-14-2018	13:48:56
AC9 Absorption and Attenuation Meter
00000266		; Serial number
2	; structure version number
Reserved
0.000000	0.000000		; Depth calibration
19200			; Baud rate
0.100000			; Path length (meters)
31			; number of temperature calibration bins
				12.59339	13.44920	14.48425	15.49668	16.50852	17.49564	18.50545	19.52458	20.50176	21.48889	22.47318	23.48707	24.50962	25.49370	26.49784	27.51372	28.50746	29.47237	30.47938	31.50214	32.50470	33.49235	34.50337	35.50914	36.50618	37.52058	38.51018	39.51308	40.49994	41.49866	42.47204	; temperature bins
a650	Blue	20.34952		-0.00383	-0.00415	-0.00430	-0.00391	-0.00363	-0.00317	-0.00269	-0.00237	-0.00179	-0.00130	-0.00099	-0.00071	-0.00015	0.00000	0.00004	-0.00001	0.00015	0.00036	0.00058	0.00101	0.00161	0.00132	0.00160	0.00169	0.00242	0.00273	0.00336	0.00365	0.00427	0.00566	0.00670		; offset and temperature correction info
a676	Green	20.51193		-0.00398	-0.00384	-0.00360	-0.00306	-0.00302	-0.00255	-0.00235	-0.00212	-0.00163	-0.00136	-0.00118	-0.00089	-0.00029	0.00000	0.00068	0.00082	0.00099	0.00137	0.00145	0.00212	0.00260	0.00252	0.00321	0.00354	0.00457	0.00535	0.00617	0.00648	0.00742	0.00887	0.01002		; offset and temperature correction info
a715	Brown	20.23230		-0.00421	-0.00394	-0.00391	-0.00291	-0.00264	-0.00192	-0.00204	-0.00179	-0.00188	-0.00239	-0.00180	-0.00187	-0.00099	0.00000	0.00084	0.00162	0.00188	0.00224	0.00321	0.00381	0.00466	0.00528	0.00588	0.00696	0.00859	0.01041	0.01148	0.01282	0.01333	0.01456	0.01617		; offset and temperature correction info
c510	Red	20.40042		-0.00261	-0.00247	-0.00258	-0.00225	-0.00203	-0.00197	-0.00199	-0.00203	-0.00154	-0.00103	-0.00069	-0.00019	-0.00007	0.00000	0.00011	-0.00021	-0.00042	-0.00056	-0.00040	0.00011	0.00036	0.00050	0.00077	0.00079	0.00050	0.00042	0.00043	0.00092	0.00147	0.00200	0.00232		; offset and temperature correction info
c532	Magenta	20.40760		-0.00248	-0.00265	-0.00278	-0.00279	-0.00296	-0.00292	-0.00238	-0.00206	-0.00129	-0.00096	-0.00092	-0.00052	-0.00009	0.00000	0.00007	-0.00049	-0.00136	-0.00107	-0.00079	-0.00065	-0.00074	-0.00105	-0.00152	-0.00192	-0.00236	-0.00269	-0.00252	-0.00233	-0.00172	-0.00128	-0.00067		; offset and temperature correction info
c555	Black	20.50654		-0.00053	-0.00063	-0.00106	-0.00094	-0.00068	-0.00055	-0.00053	-0.00039	-0.00028	-0.00025	-0.00011	-0.00035	-0.00007	0.00000	-0.00037	-0.00055	-0.00036	-0.00014	0.00019	0.00044	0.00032	0.00040	0.00050	0.00028	0.00014	0.00013	0.00030	0.00073	0.00117	0.00176	0.00241		; offset and temperature correction info
a412	LtBlue	17.15231		-0.01972	-0.01823	-0.01612	-0.01381	-0.01272	-0.01080	-0.00959	-0.00866	-0.00710	-0.00532	-0.00354	-0.00148	-0.00028	0.00000	0.00176	0.00297	0.00394	0.00440	0.00453	0.00487	0.00804	0.00856	0.01065	0.01248	0.01388	0.01439	0.01659	0.01881	0.02256	0.02450	0.02719		; offset and temperature correction info
a440	LtGreen	18.00171		-0.00729	-0.00642	-0.00581	-0.00502	-0.00426	-0.00349	-0.00244	-0.00218	-0.00179	-0.00101	-0.00046	-0.00006	0.00036	0.00000	0.00040	0.00045	0.00030	-0.00015	-0.00024	-0.00035	0.00012	-0.00013	-0.00033	-0.00089	-0.00142	-0.00189	-0.00231	-0.00205	-0.00140	-0.00140	-0.00146		; offset and temperature correction info
a488	Yellow	18.86491		-0.00113	-0.00102	-0.00106	-0.00064	-0.00027	-0.00020	-0.00030	-0.00037	-0.00047	-0.00059	-0.00052	-0.00012	0.00008	0.00000	0.00025	0.00012	-0.00013	-0.00043	-0.00065	-0.00076	-0.00025	0.00010	0.00090	0.00111	0.00113	0.00104	0.00073	0.00068	0.00120	0.00186	0.00258		; offset and temperature correction info
c650	Blue	20.46075		-0.00145	-0.00097	-0.00092	-0.00139	-0.00185	-0.00196	-0.00237	-0.00266	-0.00238	-0.00163	-0.00083	-0.00041	-0.00010	0.00000	0.00005	-0.00001	0.00015	0.00034	0.00029	0.00065	0.00101	0.00164	0.00126	0.00156	0.00175	0.00270	0.00287	0.00371	0.00407	0.00473	0.00534		; offset and temperature correction info
c676	Green	20.10118		-0.00170	-0.00144	-0.00149	-0.00177	-0.00188	-0.00194	-0.00198	-0.00196	-0.00177	-0.00156	-0.00140	-0.00091	-0.00033	0.00000	0.00050	0.00092	0.00110	0.00141	0.00167	0.00199	0.00216	0.00265	0.00269	0.00289	0.00315	0.00374	0.00367	0.00408	0.00486	0.00561	0.00646		; offset and temperature correction info
c715	Brown	19.91219		-0.01201	-0.01097	-0.00859	-0.00680	-0.00651	-0.00592	-0.00535	-0.00440	-0.00387	-0.00303	-0.00222	-0.00153	-0.00028	0.00000	0.00093	0.00149	0.00247	0.00322	0.00330	0.00427	0.00373	0.00464	0.00536	0.00551	0.00643	0.00733	0.00779	0.00884	0.00899	0.01021	0.01120		; offset and temperature correction info
a510	Red	19.21192		0.00201	0.00193	0.00158	0.00098	0.00089	0.00049	0.00011	-0.00016	-0.00016	-0.00005	0.00028	0.00025	0.00006	0.00000	0.00035	-0.00022	-0.00023	-0.00080	-0.00144	-0.00154	-0.00153	-0.00204	-0.00220	-0.00219	-0.00190	-0.00128	-0.00069	-0.00018	0.00068	0.00152	0.00241		; offset and temperature correction info
a532	Magenta	19.41084		-0.00097	-0.00072	-0.00060	-0.00081	-0.00062	-0.00071	-0.00040	0.00020	0.00028	0.00043	0.00000	-0.00035	0.00007	0.00000	-0.00011	-0.00059	-0.00080	-0.00098	-0.00137	-0.00162	-0.00163	-0.00130	-0.00073	-0.00018	0.00090	0.00185	0.00175	0.00247	0.00291	0.00327	0.00349		; offset and temperature correction info
a555	Black	19.69776		0.00171	0.00183	0.00183	0.00186	0.00191	0.00170	0.00115	0.00131	0.00097	0.00073	0.00060	0.00013	0.00015	0.00000	0.00014	-0.00029	-0.00066	-0.00082	-0.00116	-0.00139	-0.00134	-0.00167	-0.00119	-0.00093	-0.00048	0.00053	0.00111	0.00095	0.00178	0.00206	0.00273		; offset and temperature correction info
c412	LtBlue	19.91180		-0.02051	-0.01853	-0.01589	-0.01311	-0.01059	-0.00877	-0.00705	-0.00581	-0.00413	-0.00231	-0.00098	-0.00066	-0.00011	0.00000	-0.00013	-0.00085	-0.00170	-0.00170	-0.00302	-0.00330	-0.00429	-0.00551	-0.00626	-0.00775	-0.00978	-0.01181	-0.01113	-0.01108	-0.01116	-0.01192	-0.01291		; offset and temperature correction info
c440	LtGreen	20.06241		-0.01064	-0.00992	-0.00892	-0.00766	-0.00639	-0.00531	-0.00478	-0.00384	-0.00287	-0.00187	-0.00102	-0.00063	-0.00023	0.00000	-0.00007	-0.00053	-0.00090	-0.00119	-0.00169	-0.00197	-0.00226	-0.00257	-0.00260	-0.00289	-0.00394	-0.00470	-0.00481	-0.00493	-0.00520	-0.00580	-0.00620		; offset and temperature correction info
c488	Yellow	20.35984		-0.01125	-0.01082	-0.00966	-0.00833	-0.00726	-0.00661	-0.00579	-0.00500	-0.00389	-0.00278	-0.00167	-0.00113	-0.00041	0.00000	0.00055	0.00121	0.00187	0.00226	0.00222	0.00251	0.00281	0.00359	0.00414	0.00427	0.00401	0.00404	0.00486	0.00563	0.00638	0.00684	0.00718		; offset and temperature correction info
0.003500	0.004000	0.015000	0.020000	0.015000	0.020000	2500.000000	2000.000000	1000.000000	; maxANoise	maxCNoise	maxADifference	maxCDifference	minACounts	minCCounts	minRCounts	maxTempSdev	maxDepthSdev
0			; auxilliary capabilities
1			; acquisition binsize
0	3.13731	2.52521	1.78996	10.39462	8.47675	7.36513	36.27305	24.13359	13.33015	3.69128	3.04247	2.14768	10.64174	8.54349	7.20327	35.80526	23.68178	12.98954	31.64	6.1	0.00	7.58	0.01265	0.01288	0.01624	0.00779	0.00579	0.00637	0.00466	0.01262	0.01676	0.00678	0.00698	0.00879	0.01484	0.01090	0.01192	0.00218	0.00618	0.00866
170	3.11831	2.49402	1.96745	10.44047	8.69694	6.87111	36.43543	23.98346	13.04617	3.17014	2.62644	1.88290	10.45183	8.43319	6.85836	35.84284	23.91986	13.62685
330	3.08159	2.50924	1.80369	10.79265	9.13729	7.41403	36.11924	24.01124	13.03443	3.14663	2.49791	1.83929	10.41618	8.35323	6.82535	35.79589	23.70908	13.02638
490	3.07295	2.45813	2.02675	10.37958	8.36776	6.85843	36.31992	24.01072	13.09608	3.20515	2.55075	2.07606	10.43961	8.65022	7.19827	35.89272	23.68385	12.96311
660	3.10362	2.77224	1.89503	10.41002	8.45910	6.91789	36.60944	24.05344	13.51297	3.40193	2.96473	2.60998	10.46140	9.75012	7.85983	37.73324	26.12875	15.49461
820	3.25273	2.74215	2.00423	14.33224	12.10121	9.90704	36.28605	24.00754	13.03296	4.25357	2.76210	2.36646	10.44147	8.38848	6.91378	37.13579	23.72574	13.04009
980	3.07806	2.44825	1.72945	10.59187	8.89899	6.93357	36.35915	24.16144	13.12511	3.39555	2.54098	2.31477	10.46453	8.54414	6.92991	35.99458	23.73938	13.02764
1150	3.18342	2.48354	1.75315	10.51504	8.56204	6.87339	36.26094	24.04031	13.21239	3.16841	2.60699	2.17064	10.74627	8.68133	7.46269	35.71989	23.99183	13.22078
1310	3.13000	2.56077	1.81847	10.87035	8.60237	7.03555	36.55318	24.23048	13.13479	3.42651	2.95066	2.07649	10.40181	8.42127	6.93837	35.77717	24.01914	13.05258
1470	3.74923	2.65758	1.85331	10.38874	8.44827	6.96663	37.13341	24.70569	14.59630	3.20864	2.51610	1.89861	10.63052	9.04312	8.32936	35.76649	23.72366	13.14458
1640	4.04276	2.99515	2.40967	10.49451	8.45642	6.97803	36.57245	24.37483	13.36171	3.17204	2.51105	1.84261	11.14263	8.77693	7.15760	35.74722	23.72371	12.97118	31.58	6.1	0.00	7.59	0.01265	0.01288	0.01624	0.00779	0.00579	0.00637	0.00466	0.01262	0.01676	0.00678	0.00698	0.00879	0.01484	0.01090	0.01192	0.00218	0.00618	0.00866
1800	3.26180	2.75210	2.10535	10.41081	8.50701	6.93176	36.92665	24.50274	13.06194	3.24729	2.62445	1.92287	10.59169	8.58467	7.13589	36.24139	24.33352	13.12768
1960	3.54207	2.96316	2.12204	10.54210	8.89615	7.16156	36.51995	24.06745	13.07768	3.37864	2.98719	2.27010	10.54865	8.53099	7.04791	35.85435	23.71634	12.98158
2130	3.09005	2.46947	1.73305	10.36627	8.37373	6.86755	35.89878	23.94154	13.08404	3.20694	2.51210	2.06778	10.49165	8.53038	7.20946	35.87996	23.98902	13.41613
2290	3.34537	2.87733	1.88331	10.72375	9.10264	8.66979	36.34398	24.12095	13.22626	3.61655	3.33766	2.30585	10.64308	8.61561	6.89247	35.90293	23.79385	14.09576
2450	3.10082	2.52040	1.77989	10.93287	8.81740	6.98372	36.56354	24.27468	13.27121	3.33012	2.52601	1.87865	10.45002	8.35319	6.93413	35.92867	24.11958	13.06136
2620	3.19608	2.49763	1.82031	10.35413	8.38528	6.87097	36.29786	23.97186	13.02205	3.16570	2.51818	1.88067	10.46970	8.38077	6.89026	35.87186	23.73247	13.00760
2780	3.31000	2.52888	1.88104	10.37393	8.48666	6.87071	36.48627	24.36162	13.23993	3.29440	2.63914	1.92398	10.84219	8.71369	7.23882	35.82477	23.97176	13.05579
2940	3.33778	2.62587	1.88697	10.71660	8.40384	6.96023	36.47301	24.18708	13.44913	3.39543	2.76627	2.03364	10.65203	8.77206	7.30088	35.91376	23.68529	12.97088
3100	3.71461	3.02752	2.04881	10.37756	8.47324	6.91224	36.56978	24.36403	13.22554	3.17833	2.52806	1.94416	10.51390	8.49037	6.94141	35.81672	23.76828	13.07093
3270	3.31446	2.63301	1.90799	10.90136	8.71974	7.09145	36.82337	24.10125	13.45189	3.25400	2.72049	2.29289	10.63534	8.52606	7.08530	35.75289	23.69822	13.05004	31.58	6.1	0.00	7.76	0.01264	0.01288	0.01624	0.00779	0.00579	0.00637	0.00466	0.01262	0.01676	0.00678	0.00698	0.00879	0.01484	0.01090	0.01192	0.00218	0.00618	0.00865
3430	4.07211	3.06021	1.93550	11.02986	8.75102	7.00741	36.99500	24.37268	13.13496	3.53332	2.65034	1.85580	10.60607	8.54547	7.18500	35.70240	23.69503	12.98146
3590	3.96369	3.14378	2.30889	10.38310	8.47199	7.47041	36.77044	24.07868	13.29988	3.29951	2.79468	1.84057	10.63687	8.57878	7.00957	36.41659	24.18281	13.53921
3760	3.11798	2.50000	1.81404	10.56409	8.51117	6.99706	36.12466	23.95801	13.10083	3.16185	2.55332	2.22760	10.38523	8.36016	6.98225	36.17189	23.68658	12.96830
3920	3.22427	2.48972	1.78071	10.37689	8.43620	7.20371	36.25087	24.22579	13.12368	3.16948	2.50846	1.82572	10.37990	8.33639	6.82714	36.38106	23.70099	12.98057
4080	3.11128	2.49495	1.73345	10.35149	8.37135	7.02926	36.04647	23.94456	13.02976	3.42505	2.74795	1.88025	10.57649	8.46846	6.92276	35.77824	23.70238	12.96692
4250	3.14815	2.55315	1.91772	10.35028	8.37187	6.86184	37.16017	24.75414	13.61482	3.15160	2.50584	1.82943	10.54679	8.63087	7.27210	35.80231	23.69531	12.97159
4410	3.31784	2.74786	2.00805	10.35107	8.38043	7.01346	36.58113	24.33071	13.32341	3.15445	2.50428	1.85833	10.49068	8.50150	6.88899	35.79963	23.70113	13.31434
4570	3.10678	2.56508	1.91522	10.84668	8.46545	6.88035	36.55794	23.98572	13.02940	3.23316	2.55346	1.84251	10.52672	8.36383	6.85639	35.81705	23.69988	13.01803
4740	3.09395	2.67698	1.88342	10.50570	8.47679	7.36781	36.47630	24.02601	13.05440	3.22006	2.75527	2.13147	10.52891	8.41623	6.91685	36.19136	24.08509	13.09288
4900	3.29049	2.46339	1.73498	10.52046	8.74520	7.63870	35.88332	24.06100	13.37605	3.28146	2.53967	1.89892	10.95675	9.34309	7.76405	35.70025	23.74964	13.04982	31.58	6.1	0.00	7.60	0.01264	0.01288	0.01624	0.00779	0.00580	0.00637	0.00466	0.01262	0.01676	0.00678	0.00698	0.00879	0.01484	0.01090	0.01191	0.00218	0.00619	0.00865
5070	3.20976	2.64711	2.21427	10.36451	9.41309	7.16900	36.38535	23.97643	13.02637	3.23457	2.72659	2.08781	10.42330	8.36211	6.82209	35.82428	23.69767	12.99033
5230	3.07185	2.47332	1.75332	10.35694	8.37714	7.18230	35.97366	23.97094	13.02875	3.15209	2.97227	1.83679	10.43201	8.37413	6.82521	36.02625	23.91412	13.10673
5390	3.10005	2.56633	1.75830	10.37096	8.60865	7.08638	36.17996	24.00997	13.08197	3.16168	2.52312	1.83451	10.37540	8.33411	6.92798	35.65133	23.69019	12.98763
5560	3.11127	2.45871	1.74375	10.36094	8.37470	6.87255	36.29297	24.06005	13.12096	3.54974	2.58168	1.99803	10.38616	8.33912	6.82724	36.22540	23.93425	13.04518
5720	3.10218	2.47303	1.77530	10.35195	8.37930	6.86671	36.40726	23.97248	13.45980	3.15664	2.52864	1.83657	10.62801	8.58934	7.18082	35.76541	23.71696	12.97485
5880	3.35628	2.56987	1.74693	10.48052	9.02379	7.73104	36.68215	24.01867	13.07172	4.04368	3.67745	1.91531	10.80130	8.96590	7.05595	35.82428	24.28076	13.03143
6050	3.23813	2.64475	1.76611	11.05402	8.73440	7.39385	36.21691	24.04733	13.19598	3.17136	2.51823	1.85184	10.41971	8.38836	7.02820	35.75740	23.70031	12.98618
6210	3.31961	2.62350	1.88563	10.35752	8.37788	6.86924	36.11924	23.98571	13.05344	3.19471	2.51358	1.90655	10.40073	8.46073	6.91228	35.69892	23.72224	13.01192
6370	3.09684	2.53135	1.81921	10.70531	8.51083	6.94588	36.47329	24.08406	13.11440	3.37494	2.58491	1.85372	10.38164	8.54181	6.83096	35.77341	23.76093	13.04114
6530	3.08742	2.56680	1.84965	10.37970	8.39603	6.88511	35.90455	23.92835	13.06990	3.22121	2.56973	1.99977	10.47065	8.44426	6.93075	36.69933	23.69910	13.02392	31.58	6.2	0.00	7.68	0.01264	0.01287	0.01624	0.00779	0.00579	0.00637	0.00466	0.01262	0.01676	0.00678	0.00698	0.00879	0.01484	0.01090	0.01191	0.00218	0.00618	0.00865
6700	3.27222	2.58312	1.85795	11.24675	8.79274	7.65468	36.65385	24.45285	13.13922	4.06185	3.09684	2.19138	10.83074	8.46980	6.94154	36.05697	23.96756	13.28217
6860	3.09163	2.49822	1.92246	10.60718	8.93727	7.50475	36.09837	23.97621	13.05133	3.20316	3.64338	2.91304	10.45567	8.42344	6.89203	35.92869	24.10966	14.98943
7020	3.08989	2.46162	1.74117	10.75724	8.38156	7.00002	36.39458	24.01905	13.15821	3.26905	2.67642	2.31407	10.72550	8.50136	6.86314	36.24412	24.70669	13.38079
7190	3.10079	2.49513	2.16519	10.53609	8.48014	6.95777	36.92834	24.01078	13.12182	3.30737	2.52335	1.87425	10.38693	8.32935	6.82638	35.74596	23.70285	12.97610
7350	3.12430	2.52539	1.73740	10.41492	8.49004	7.11984	36.27955	23.91879	13.09847	3.19383	2.51710	1.83044	10.46030	8.35412	6.84022	35.66640	23.69813	13.02515
7510	3.07195	2.50794	1.73053	10.35804	8.40253	6.92597	36.62959	24.44089	13.41944	3.15441	2.49921	1.86561	10.51489	8.62938	7.02659	35.76462	23.73062	12.98473
7670	3.25189	2.82585	2.09397	10.42933	8.44781	7.05580	36.10944	24.08469	13.30893	3.20991	2.53837	1.83048	10.57038	8.55163	6.95639	35.76462	23.80753	13.03282
7840	3.12693	2.46738	1.75785	10.35465	8.45736	7.13121	36.04829	23.96446	13.01402	3.28796	2.59122	1.87470	10.42640	8.45016	6.86365	36.05422	23.87402	13.22882
8000	3.07594	2.58093	1.74616	10.41399	8.45608	6.89221	35.96902	24.10518	13.18597	3.86156	2.59353	1.85069	10.55516	8.54375	7.05025	35.76328	23.81930	12.99928
8170	3.08998	2.59603	1.93890	10.82919	8.94363	7.53322	35.96295	24.10310	13.12737	3.21826	2.66755	2.11475	12.04036	8.42007	7.27302	35.85503	23.79233	13.08659	31.64	6.3	0.00	7.64	0.01264	0.01287	0.01624	0.00779	0.00579	0.00637	0.00466	0.01262	0.01676	0.00678	0.00698	0.00879	0.01484	0.01090	0.01192	0.00218	0.00618	0.00866
8330	3.68652	3.04221	2.66473	10.52897	8.42648	6.91238	36.44175	24.10249	13.40634	3.19730	2.53794	1.94206	10.46330	8.37294	6.85849	35.80537	23.78380	13.12100
8490	3.14719	2.53165	1.75685	10.83007	8.52102	7.01830	36.37680	23.95507	13.06026	3.59685	2.67290	2.23035	10.56362	8.70681	7.28625	35.83487	23.87890	13.08466
8660	3.21619	2.74544	1.90285	10.49649	8.54710	7.06757	35.99069	24.30784	13.25936	3.60904	2.77447	1.94510	10.57950	8.45574	7.02708	35.96462	23.86776	13.42523
8820	3.53693	2.65216	2.07836	10.62188	8.49092	6.88013	36.70403	24.16692	13.34369	3.38800	2.92875	2.33641	11.11603	9.07549	7.00003	35.89548	23.81110	13.12668
8980	3.25876	2.84173	2.10131	10.40321	8.40604	7.11255	36.91782	24.37566	13.81806	3.24110	2.53439	1.83242	10.79318	8.52714	6.99793	35.81073	23.76983	12.98153
9150	3.13820	2.51653	1.93028	11.54670	8.64232	7.04789	36.73935	24.01295	13.07258	3.17569	2.56138	1.84339	10.80211	8.42550	6.85333	35.98914	23.82050	13.73731
9310	3.37261	2.65697	1.93307	10.53011	8.57706	7.18010	36.38205	24.05395	13.06854	3.27020	2.60652	1.84028	10.40473	8.39224	7.06472	36.13198	24.62626	13.10515
9470	3.57907	2.60072	1.81612	10.45334	8.52168	7.01463	36.62301	24.31095	13.10688	3.30605	2.50805	1.83319	10.46087	8.35910	6.86516	35.77463	23.72942	12.99195
9640	3.15987	2.66744	2.10249	10.36679	8.37869	6.94484	36.62839	24.07446	13.03519	3.15820	2.50539	1.84356	10.39950	8.34121	6.83122	35.71209	23.99488	13.03652
9800	3.08746	2.50972	1.99066	10.47784	8.44529	6.94963	35.84012	24.00864	13.23206	3.17771	2.64628	2.77323	10.50039	8.55848	6.86122	36.73416	24.28183	13.31019	31.58	6.0	0.00	7.65	0.01264	0.01287	0.01624	0.00779	0.00579	0.00637	0.00466	0.01263	0.01676	0.00678	0.00698	0.00879	0.01484	0.01090	0.01192	0.00218	0.00618	0.00866
9960	3.35670	2.53493	1.82929	10.64875	8.53115	6.97016	36.48733	24.50947	13.29941	3.60010	2.68344	1.97803	10.59094	8.33390	6.82688	37.05976	23.73856	12.98220
10130	3.14010	2.51706	1.78150	10.53412	8.80810	7.53486	35.89165	24.00176	13.02365	4.08840	2.91629	1.88146	10.37166	8.36399	6.88787	35.71383	23.70507	12.98586
10290	3.07139	2.46504	1.75136	10.36823	8.38511	6.89223	36.59045	24.37847	13.19209	3.25621	2.59302	1.88302	10.38621	8.33751	6.93172	35.80581	23.70493	12.99034
10450	3.30033	2.55571	1.90581	10.41338	8.52375	7.01992	36.19106	23.97839	13.03386	3.18733	2.51183	1.85730	10.39677	8.35538	7.33952	36.49315	24.12566	13.27007
10610	3.16269	2.61376	2.28050	10.47084	8.82213	7.07887	36.54765	24.24247	13.31234	3.15962	2.53032	1.83542	10.70753	8.71985	7.25256	35.69659	23.69980	13.15517
10780	3.11280	2.49407	1.73645	10.43694	8.45107	6.99177	36.38438	23.99196	13.27571	3.32944	2.53128	1.87095	11.30040	8.74721	7.19117	37.08104	23.94031	12.99855
10940	3.23584	2.56374	2.22360	12.23778	10.14468	7.13003	36.61550	24.01924	13.16516	3.39509	2.64542	2.05232	10.38367	8.43203	6.91481	35.87974	23.99357	13.13040
11100	3.21361	2.53216	1.79497	10.35744	8.37695	6.87881	36.45378	24.22100	13.16335	3.17857	2.56363	1.97115	10.44215	8.38515	7.13226	35.82726	23.77970	13.09436
11270	3.26741	2.69895	2.14254	11.10759	9.75637	8.05636	36.48291	24.27778	13.45227	3.24228	2.62431	1.94334	11.11840	9.11259	7.52382	35.94878	24.32513	13.15034
11430	3.50089	2.73369	1.89021	10.83300	8.81004	7.02354	36.87826	24.38785	13.61779	3.25657	2.64551	2.19997	10.84324	9.01676	7.40748	35.84825	23.75916	13.01857	31.58	6.0	0.00	7.58	0.01264	0.01287	0.01624	0.00779	0.00579	0.00637	0.00466	0.01262	0.01676	0.00678	0.00698	0.00879	0.01484	0.01090	0.01191	0.00218	0.00618	0.00866
11600	3.66530	2.89845	2.42915	10.66665	9.21559	7.24990	36.39544	24.29813	13.21567	3.19262	2.61369	3.46532	10.58307	8.97301	7.07245	36.19576	24.10263	13.07232
11760	3.24487	3.01744	1.92514	10.89681	9.62785	7.79550	36.40684	25.18042	13.63574	4.15889	3.46796	2.20536	10.59311	8.58484	6.99200	36.50682	24.21644	12.99589
11920	3.17228	2.65459	1.96186	10.76725	8.47433	6.87487	36.42088	24.08187	13.11511	3.17523	2.58080	1.88660	10.84333	8.82317	7.18907	35.72929	23.70145	12.97971
12080	3.29239	2.78418	1.92541	10.35771	8.48566	7.06968	36.32560	24.02903	13.15087	3.61259	2.94001	2.01839	10.46737	8.36054	6.96270	35.69613	23.69009	12.98043
12250	3.07037	2.48466	1.82136	10.72019	8.77247	7.12227	36.42440	23.96677	13.04343	3.24422	2.52021	1.86825	10.39778	8.74534	6.95581	35.88058	23.91305	13.08410
12410	3.18649	2.49882	1.92282	10.36418	8.45477	7.01009	37.75808	24.56720	13.12917	3.36897	2.70404	2.06391	10.42169	8.39215	6.98585	35.87383	23.73827	12.97237
12580	3.23723	2.60425	1.78372	10.47787	8.38101	6.90278	36.50999	24.03844	13.82644	3.23456	2.62790	2.04078	10.98735	8.45075	7.11487	35.73727	23.75080	13.14600
12740	3.44600	2.61797	1.83406	10.45886	8.40827	6.87788	36.49228	24.21298	13.16744	3.39959	2.52426	1.86195	10.71188	9.16495	7.25622	35.82274	23.72686	13.00176
12900	3.36508	2.77485	2.03640	10.35378	8.37641	6.87664	36.43231	24.58753	13.53819	3.26236	2.68910	2.06148	10.94215	8.73637	6.94160	36.26000	24.02399	13.14078
13070	3.69780	3.23587	3.14185	10.48281	8.67151	7.15859	36.40242	24.22430	13.52837	3.54934	2.62799	2.12101	11.46775	8.86265	7.03493	35.96047	23.78195	13.44903	31.58	6.0	0.00	7.60	0.01264	0.01287	0.01623	0.00779	0.00579	0.00637	0.00466	0.01262	0.01676	0.00678	0.00698	0.00879	0.01484	0.01090	0.01191	0.00218	0.00619	0.00866
13230	3.34482	2.70962	2.31170	10.84498	8.50431	6.89724	36.71685	24.48778	13.20536	3.36649	2.59263	2.08362	11.41802	9.08386	7.19967	36.02871	23.72648	13.02122
13390	3.35155	2.88172	2.02601	10.44176	8.51740	7.11456	37.01069	24.11067	13.11114	3.94319	3.70330	2.84297	10.65127	8.45018	6.95720	36.79405	23.88731	13.93548
13560	3.51722	2.79651	2.06660	10.53868	8.80435	6.90291	36.44900	23.95524	13.05421	3.54002	2.88964	2.12178	10.45145	8.39031	6.87110	36.70134	24.07348	13.49018
13720	3.13080	2.56158	1.84565	10.45776	8.55486	6.87150	36.35692	23.99351	13.09787	3.16233	2.50074	1.82688	10.40279	8.38858	6.87037	35.89404	23.79187	13.16043
13880	3.17812	2.48534	1.94333	10.57332	8.75561	7.38218	36.35169	24.12242	13.68696	3.30897	2.87304	2.41118	10.80811	8.71826	7.24179	35.89404	24.18082	13.13558
14050	3.11869	2.68655	2.04741	10.91896	9.18889	7.74794	36.21220	24.13828	13.32101	3.76750	3.05541	2.11667	10.62771	8.80926	7.14297	35.93195	23.84461	13.89651
14210	3.41218	2.78573	2.15912	11.59651	8.83386	7.37243	36.40505	24.21788	13.22981	3.58394	2.55932	1.95639	10.44009	8.74544	6.87574	35.76650	23.98282	13.18974
14370	3.09872	2.61215	2.20384	11.76637	8.37630	6.86724	36.71052	24.18803	13.53782	3.31811	2.63290	1.83184	10.46144	8.67499	7.13102	35.80526	23.91362	13.02241
14540	3.80658	3.06493	2.11010	10.37457	8.40301	6.90339	36.62587	24.38659	13.70548	3.21676	2.59216	1.85517	10.81218	8.68861	7.28588	35.71726	23.73218	13.00939
14700	3.16978	2.47706	1.95013	10.45728	8.48650	7.17519	35.93522	24.25820	13.49187	3.22777	2.69105	2.02642	10.65404	8.66906	7.11855	35.85798	23.85753	13.00647	31.64	6.0	0.00	8.02	0.01264	0.01287	0.01623	0.00779	0.00580	0.00637	0.00466	0.01262	0.01676	0.00678	0.00698	0.00879	0.01484	0.01090	0.01191	0.00218	0.00618	0.00866
14860	3.35480	2.83474	2.11639	10.36480	8.53993	7.40608	35.89596	24.22427	13.15053	3.91874	2.86267	1.83928	10.38899	8.34585	6.83181	35.81098	24.04030	13.67974
15020	3.09525	2.44436	1.73392	10.42400	8.41095	7.03365	36.17922	23.96546	13.32894	3.65335	2.72175	2.00271	10.49389	8.47908	7.11861	36.28562	24.27130	13.23588
15190	3.15079	2.52006	1.80436	10.48497	8.45545	6.88318	36.34177	23.95980	13.01603	3.25870	2.67288	1.84570	10.43806	8.33320	6.82498	35.76153	23.69964	12.97710
15350	3.08742	2.45533	1.90769	10.36003	8.38094	6.86664	36.08702	24.05347	13.25870	3.15046	2.50390	1.82946	10.51313	8.43823	6.95922	35.75353	23.69035	12.98382
15510	3.18984	2.62004	1.84358	10.37507	8.43337	6.89753	36.40385	23.95295	13.03661	3.17934	2.52881	1.82666	10.70488	8.70955	6.86763	35.77887	23.69894	13.02379
15680	3.24024	2.56160	1.84635	10.83091	8.54175	6.94734	36.77009	24.15168	13.37404	3.19475	2.51436	1.83793	10.48920	8.45127	6.96294	35.68053	23.74104	12.97720
15840	3.06735	2.45362	1.74625	10.35678	8.38909	6.86558	36.51853	24.12473	13.23732	3.14987	2.50719	1.90647	10.51460	8.39951	6.84431	35.70569	23.70865	12.98151
16010	3.08558	2.46553	1.82443	10.38237	8.38557	6.86845	36.49283	23.96340	13.03252	3.32054	2.53561	1.90890	10.51530	8.36063	6.82683	35.81232	23.71032	13.02683
16170	3.08041	2.44840	1.72867	10.82859	8.57543	6.95110	36.34613	23.96666	13.13568	3.16756	2.52004	1.90710	10.47052	8.37435	6.91508	35.67392	23.69465	12.98747
16330	3.06303	2.45783	1.76306	10.42102	8.40828	6.87066	35.48426	23.98176	13.03472	3.14980	2.50459	1.84767	10.39051	8.38247	6.96388	35.78419	23.70104	12.97361	31.58	6.0	0.00	7.64	0.01264	0.01287	0.01623	0.00779	0.00580	0.00637	0.00466	0.01262	0.01676	0.00678	0.00698	0.00879	0.01484	0.01090	0.01191	0.00218	0.00618	0.00866
16500	3.08592	2.44504	1.75021	10.37112	8.73776	7.07366	36.49795	24.07650	13.11029	3.26721	2.69791	2.11436	10.46322	8.43226	6.97347	36.46553	24.23157	13.42828
16660	3.21080	2.84009	2.17237	10.86925	8.64385	6.87263	36.37826	24.21496	13.13400	3.14851	2.50186	2.03825	10.53145	8.47054	6.95738	35.68449	23.72006	12.97148
16820	3.22428	3.01189	2.33524	10.36010	8.39985	6.87107	36.64511	24.36660	13.53285	3.15042	2.50784	1.89982	10.51170	8.68661	7.53809	36.05640	23.74049	12.97779
16990	3.84347	2.71615	2.52362	10.38190	8.38810	7.11566	36.34856	24.42874	13.39946	3.20298	2.81612	2.24778	10.75004	8.88553	7.26470	35.88895	24.11168	13.13311
17150	3.09937	2.45811	1.74059	10.38682	8.38263	6.87342	36.14822	23.99594	13.03129	3.19924	2.53077	1.90640	10.49580	8.35006	6.96522	36.11423	23.70326	12.99588
17310	3.18287	2.45519	1.74345	10.45916	8.50324	6.86774	36.25739	23.95723	13.04278	3.15968	2.51144	1.83301	10.52443	8.61098	7.07268	35.73355	23.71561	12.99097
17480	3.32031	2.54906	2.05195	10.36319	8.41295	6.91680	36.67300	24.98976	13.94998	3.17629	2.54485	1.90622	11.13305	9.56619	7.35409	35.73222	23.78304	13.08392
17640	3.49416	3.10190	2.58796	10.35862	8.38680	7.02383	36.35205	23.98176	13.16249	3.46403	2.58006	3.05960	10.97726	8.85984	7.26255	37.07893	25.79408	14.62028
17800	3.08464	2.61942	1.73088	10.35512	8.41249	6.97761	36.58598	24.13092	13.41646	3.16975	2.49867	1.82916	10.59195	8.76843	7.33353	35.90651	23.82239	13.34369
17970	3.11495	2.56022	1.97232	10.65931	8.76901	7.76241	35.87463	24.45157	13.25082	3.23957	2.64728	2.14891	10.71376	8.39482	6.85707	35.85396	23.76598	13.02028	31.64	6.0	0.00	7.57	0.01264	0.01287	0.01623	0.00779	0.00579	0.00637	0.00466	0.01262	0.01676	0.00678	0.00698	0.00879	0.01484	0.01090	0.01192	0.00218	0.00618	0.00866
18130	3.09626	2.57518	2.14254	10.98924	9.01674	7.50167	36.24663	23.96299	13.02067	3.33854	2.56765	1.86927	10.61011	8.75200	7.05682	35.83649	23.80864	13.54930
18290	3.17819	2.99157	1.94546	10.70502	9.03873	7.16229	36.48868	24.17531	13.37397	3.72100	2.99825	2.10115	10.70208	8.43077	6.97243	35.80565	23.75412	13.48821
18460	3.19691	2.51868	1.99190	10.63457	8.73002	7.52976	36.51968	23.98736	13.49526	3.39322	2.96815	2.21845	10.54239	8.42306	7.07946	35.98532	23.77114	13.13154
18620	3.17340	2.67149	2.22734	10.39929	8.59659	6.87315	36.58466	24.26918	13.59692	3.17544	2.50957	1.86194	10.80321	8.71085	7.55765	35.94994	23.78022	12.97944
18780	3.66057	3.12017	2.52784	10.41810	8.40148	7.02604	37.02650	24.33444	13.23409	3.21305	2.55180	1.88138	11.58057	8.88560	7.43667	36.35607	23.83727	12.97592
18950	3.44247	2.97540	2.31321	10.35773	8.37606	6.86778	36.62493	24.13407	13.40224	3.29093	2.56762	1.85001	10.60605	8.34720	6.84031	35.86742	23.91276	13.05197
19110	3.10218	2.58595	1.92488	10.36623	8.56522	7.13035	36.46747	24.03810	13.12118	3.26187	3.05535	2.66567	10.37829	8.33100	6.84085	35.85800	23.85725	13.22675
19270	3.06561	2.44617	1.73790	10.38136	8.37559	6.86063	36.46659	23.97602	13.16122	3.15253	2.50420	1.83346	10.68713	8.47089	6.89038	35.66604	23.70045	12.98234
19440	3.07180	2.58770	1.74227	10.37299	8.38570	6.96871	36.36910	23.95031	13.02880	3.20645	2.56898	1.98026	10.38015	8.34353	6.82608	35.70441	23.74200	12.97984
19600	3.14694	2.58883	1.91643	10.41125	8.46819	6.96137	35.89493	24.03207	13.13135	4.82889	3.77612	2.00773	10.49017	8.36411	6.85240	35.68811	23.97321	12.97657	31.64	6.1	0.00	7.59	0.01264	0.01287	0.01623	0.00779	0.00579	0.00637	0.00466	0.01262	0.01676	0.00678	0.00698	0.00879	0.01484	0.01090	0.01192	0.00218	0.00618	0.00866
19760	3.31129	2.61025	1.89752	10.38375	8.43940	6.92464	36.70363	23.96284	13.14702	3.22561	2.62936	2.01554	10.46670	8.56455	6.98556	36.34462	24.27413	13.81953
19930	3.80662	3.07449	1.83549	10.43116	8.82500	6.91362	36.43172	23.98034	13.06366	4.72086	4.35326	3.01653	10.74486	8.65994	7.06922	36.05208	24.17752	12.97552
20090	3.43633	2.66946	2.12215	10.57956	8.57319	6.86323	36.67926	24.00742	13.14994	3.16678	2.51674	1.84653	10.45403	8.36911	6.83044	35.77319	23.74732	13.03758
20260	3.13555	2.54037	1.74001	10.40561	8.58334	6.90598	36.28591	24.03389	13.35701	4.15549	2.95584	2.90580	10.58815	8.72671	7.70275	36.31921	24.16022	12.98417
20420	3.28755	3.15153	2.17700	10.36433	8.57433	7.19957	36.23404	24.16473	13.11299	3.85198	2.82512	1.98546	10.39678	8.61132	6.97677	35.69871	23.70714	12.99370
20580	3.20471	2.56779	1.85903	10.38336	8.46351	7.18496	36.67205	24.23617	13.29287	3.28997	2.54836	1.90287	10.44079	8.35384	6.86021	35.86305	24.09827	13.53284
20750	3.06915	2.46116	1.76034	10.60659	8.64232	7.05404	36.46343	24.27146	13.02536	3.27096	2.50940	1.84183	10.44027	8.34485	6.93077	35.67092	23.69022	12.97186
20910	3.10339	2.52399	2.00106	10.35065	8.42828	6.87228	36.72353	24.03138	13.08110	3.36652	2.77326	2.16914	10.41727	8.34657	6.86247	37.12645	24.40467	14.37890
21070	3.09762	2.55770	1.82835	11.06000	9.26293	8.15264	36.62710	23.97176	13.01250	4.33561	3.46087	2.04889	10.37943	8.44230	6.97280	35.80663	23.82706	13.21887
21240	3.07287	2.47135	1.80340	10.77065	8.63179	7.11702	35.80053	24.12897	13.03807	3.66130	2.53430	1.88298	10.39742	8.40478	6.84270	35.76431	23.69693	13.02124	31.58	6.1	0.00	7.61	0.01264	0.01287	0.01623	0.00779	0.00579	0.00637	0.00466	0.01262	0.01676	0.00678	0.00698	0.00879	0.01484	0.01090	0.01192	0.00218	0.00618	0.00866
21400	3.12188	2.50752	1.76872	10.43393	8.38339	6.91273	36.42574	23.93970	13.01698	3.42486	2.51371	1.87012	10.37083	8.33367	6.84508	35.75231	23.92863	13.69530
21560	3.08081	2.44908	1.74876	10.72350	8.67778	7.07501	36.54333	23.94475	13.01308	3.16716	2.56317	1.83012	10.36544	8.33243	6.82928	35.72304	23.70151	12.97410
21730	3.06632	2.44596	1.72782	10.35325	8.38450	7.06719	36.39064	23.94526	13.02577	3.26659	2.61396	1.95240	10.40681	8.43757	6.85139	35.81916	23.79193	13.23763
21890	3.19384	2.71152	1.91384	10.85794	8.66547	6.98937	36.86690	24.22123	13.14010	3.35064	2.57112	1.91240	10.68320	8.86665	7.04541	35.82184	23.77739	12.99103
22050	3.13542	2.55242	2.73820	10.36199	8.38221	6.91771	37.49625	24.27510	13.84170	3.20176	2.74499	2.01208	10.65987	8.82819	7.80551	36.17414	24.19886	13.50170
22220	3.11908	3.13606	1.92979	11.19346	8.58115	7.03956	36.71647	24.51463	14.09063	3.49445	2.66505	2.02918	11.91585	9.85643	7.59156	35.82452	23.81183	13.22382
22380	4.07222	3.07847	2.54755	10.69734	9.12344	7.36907	36.69116	24.13612	13.10187	3.34599	2.73951	2.04602	11.59916	9.50355	7.19042	35.80307	23.77669	13.03713
22550	3.56553	2.94481	1.90482	10.40482	8.97155	7.21233	36.44862	24.06566	13.27266	3.24531	2.74245	2.31423	10.42725	8.40731	6.88341	37.21926	23.78592	13.18519
22710	3.18475	2.54539	1.86730	10.41821	8.38682	6.90081	36.50516	24.17036	13.11926	3.38061	2.57344	2.12694	10.45036	8.50698	6.85258	36.17831	24.01084	13.00723
22870	3.24767	2.80732	1.81056	10.61604	8.68575	7.65732	35.98435	24.11257	13.11536	4.69109	4.14145	3.22674	10.44242	8.34121	6.84413	35.87243	23.73197	13.62291	31.58	6.3	0.00	7.64	0.01264	0.01287	0.01623	0.00779	0.00579	0.00637	0.00466	0.01262	0.01676	0.00678	0.00698	0.00879	0.01484	0.01090	0.01192	0.00218	0.00618	0.00866
23030	3.30770	2.53510	1.87796	10.79646	8.75369	6.97124	36.60258	23.98517	13.39673	3.20331	2.50104	1.84897	10.48563	8.62435	7.35526	35.63393	23.82296	13.02939
23200	3.46328	2.68136	1.76597	10.34872	8.37557	6.87406	36.62228	23.99772	13.17599	3.16879	2.54683	1.91489	10.65345	8.37517	6.96590	35.69203	23.67647	12.96826
23360	3.37999	2.59713	2.28370	10.43795	8.38308	6.93878	36.93636	24.16630	13.41000	3.16207	2.51136	1.87496	10.40131	8.85947	6.85907	35.85761	23.73281	13.05799
23530	3.46169	2.50398	1.76638	10.39110	8.45842	6.96567	36.32908	24.02717	13.06839	3.30898	2.68514	2.05730	10.44954	8.77374	7.17189	37.88678	24.08095	13.16894
23690	3.30000	2.54416	1.77466	10.76686	9.77935	7.92523	36.85622	25.03233	14.20602	4.97847	5.79354	3.67348	11.05510	8.52603	7.38180	36.03008	24.82143	14.30482
23850	3.49086	2.80901	1.77636	10.40737	8.50400	7.00181	36.47814	23.94608	13.01628	3.23193	2.66635	2.24823	10.40500	8.35477	6.84899	35.79854	23.72696	13.16619
24020	3.07284	2.49440	1.78035	11.25503	9.63368	7.81135	36.54906	24.22727	13.64126	3.42085	2.81137	2.29101	10.63312	8.42869	6.92049	36.11400	24.01060	13.01434
24180	3.73396	2.90782	2.12046	10.66818	8.47625	6.86109	36.23035	24.22507	13.23105	3.15359	2.50730	1.88583	10.55962	8.58900	7.18301	35.61682	23.70654	13.00642
24340	3.09069	2.88646	2.08037	10.46792	8.75969	7.57497	37.03581	24.07827	13.12477	3.24479	2.87906	2.20217	10.75368	8.78657	7.15341	35.76780	23.83223	13.16512
24510	3.33721	2.79908	2.16102	10.37786	8.52415	7.21987	36.00703	24.03846	13.23746	3.57300	3.03351	2.28427	10.86711	8.63142	6.94107	36.31934	25.90802	13.87010	31.64	6.2	0.00	7.67	0.01264	0.01287	0.01623	0.00779	0.00579	0.00637	0.00466	0.01262	0.01676	0.00678	0.00698	0.00879	0.01484	0.01090	0.01192	0.00218	0.00618	0.00866
24670	3.39168	2.65790	2.06316	10.40635	8.56229	6.91029	36.77121	24.23016	13.24980	3.20011	2.53005	1.82823	10.62183	8.70667	7.17847	35.71052	23.69518	12.98270
24830	3.27231	2.55247	1.81685	10.49442	8.48776	6.91998	36.38489	23.99599	13.06592	3.15537	2.50565	1.82485	10.46011	8.45776	6.96890	36.35184	23.73239	13.03210
25000	3.35303	2.71317	1.88021	10.71005	8.64015	7.12570	36.62851	24.14218	13.20201	3.15599	2.49827	1.83361	10.53568	8.40240	6.90991	35.89809	23.89128	13.03740
25160	3.20191	2.45254	1.77605	10.98502	8.57202	6.88632	36.61328	24.19125	13.66737	3.16942	2.53801	2.00334	11.08606	9.06149	7.69746	35.72779	23.73100	13.52850
25320	3.88829	3.30700	1.99520	10.48187	8.43168	6.95376	36.07468	24.08737	13.18781	3.60120	2.61109	1.84090	10.98705	8.68647	7.01319	36.12516	24.01916	13.44922
25490	3.30895	2.47969	1.92497	10.51618	8.52522	7.20465	36.38139	23.94598	13.08309	3.62346	2.74351	2.68431	10.38792	8.40955	6.94753	38.02559	25.59093	15.25742
25650	3.26048	2.68883	2.69461	11.14013	10.33234	8.57668	36.96317	24.97529	13.66304	4.46523	3.94472	3.59877	10.47367	8.65013	6.95678	37.08573	24.83157	13.29376
25810	3.95771	3.68464	2.65919	10.55994	8.87239	7.09048	36.74759	24.88458	13.41071	4.13889	3.47519	2.45987	10.43124	8.35914	6.82947	35.80387	23.69698	12.97118
25970	3.06812	2.57043	1.91196	10.39208	8.37978	6.86222	36.25792	23.97923	13.03367	3.20116	2.58717	1.83849	10.38059	8.39725	6.89290	35.91569	25.50518	14.40291
26140	3.37803	2.85895	2.00823	13.25396	8.42686	7.08632	36.50986	24.17317	13.18802	3.36704	2.70941	2.37108	11.05418	8.75293	6.92914	35.83868	23.70391	12.98713	31.58	6.3	0.00	7.95	0.01264	0.01287	0.01623	0.00779	0.00579	0.00637	0.00466	0.01262	0.01676	0.00678	0.00698	0.00879	0.01484	0.01090	0.01192	0.00218	0.00618	0.00866
26300	3.13517	2.47442	1.73031	10.34559	8.38002	6.87349	36.57387	24.04594	13.01712	4.11667	3.50018	2.61550	10.38139	8.46675	6.94476	35.71706	23.76262	13.35075
26460	3.09447	2.44829	1.73203	10.70351	8.63221	7.78600	35.82649	23.94055	13.02910	3.82830	2.59870	1.89013	10.40824	8.35043	6.86983	35.90479	23.75886	13.08917
26630	3.40272	2.57648	1.87359	10.51453	8.38008	6.93230	36.41459	24.04007	13.01322	3.14271	2.49669	1.82219	10.36989	8.32726	6.83885	35.70379	23.69102	12.96903
26790	3.17268	2.54794	1.83866	10.95364	8.51366	6.90913	36.50897	24.00136	13.18143	3.18454	2.52433	1.82918	10.80908	8.52716	6.86959	35.68259	23.68742	12.96751
26950	3.18509	2.54559	2.03182	10.34721	8.36341	6.85978	36.84328	24.06809	13.26212	3.15343	2.50031	1.82742	11.21572	8.93100	7.50958	35.80780	23.72808	13.45086
27120	3.50574	2.63938	1.98215	10.41884	8.47168	6.94921	36.26386	23.99801	13.06623	3.28379	2.53528	1.82917	10.84237	8.54767	7.23222	35.72770	23.68534	12.98575
27280	3.11099	2.46433	1.76802	10.36666	8.37616	6.87031	36.30458	23.97524	13.02271	3.20343	2.55260	1.94602	10.36276	8.32920	6.97992	36.05755	24.34377	14.35363
27440	3.07505	2.46612	1.83811	10.48704	8.52501	7.39285	36.62305	23.90632	13.10538	3.42249	2.51037	2.72169	10.41543	8.34889	7.01135	35.81183	23.69587	13.03804
27610	3.14475	2.51504	1.76715	10.93432	9.17727	8.02983	36.26126	23.93782	13.11993	3.25936	2.61928	1.85504	10.40424	8.35263	6.83149	35.66539	23.99456	13.07131
27770	3.05959	2.56677	1.89881	10.37948	8.38055	6.86309	35.75581	24.01430	13.01590	3.32979	2.63518	1.89469	10.57292	8.40455	6.87227	35.78224	26.74167	13.28215	31.64	6.1	0.00	7.69	0.01264	0.01287	0.01623	0.00779	0.00579	0.00637	0.00466	0.01262	0.01676	0.00678	0.00698	0.00879	0.01485	0.01090	0.01192	0.00218	0.00618	0.00866
27930	3.13815	2.64876	1.89697	11.18062	8.51255	7.77062	36.52526	23.92997	13.13465	3.77105	2.66675	2.50677	10.43803	8.55748	7.02929	35.78893	23.69437	12.98526
28100	3.17594	2.58826	1.99791	10.43593	8.43731	6.87920	36.16263	24.02619	13.43216	3.53979	2.54991	1.88287	11.16023	8.63426	7.14774	35.82644	23.74425	13.02574
28260	3.51752	2.96320	2.36999	10.42655	8.40414	7.22813	36.98484	24.85197	13.72014	3.26386	2.99280	2.69215	10.71977	8.61183	7.13223	36.34581	23.91464	13.05147
28420	3.43463	2.52459	1.82682	11.91670	8.99867	7.72290	36.67912	24.06439	13.46920	4.68002	3.31839	2.58968	10.46925	8.70352	7.39071	37.64563	24.01717	12.99967
28590	3.20205	3.10267	2.53442	10.34790	8.55424	7.55493	36.18062	23.99640	13.04800	3.44043	2.76985	2.03933	10.38960	8.40797	7.07747	36.09033	23.83351	13.02210
28750	3.07691	2.59098	1.95021	10.49724	8.54103	7.29267	36.21155	23.94947	13.08037	3.31782	2.50357	1.85021	10.46026	8.38684	6.85352	35.72361	23.69950	12.99489
28910	3.09869	2.68530	2.00914	10.39848	8.64736	6.89532	36.65122	24.12587	13.22065	3.17473	3.31052	2.47657	10.44765	8.43640	6.87900	35.97113	23.70338	13.01218
29080	3.23677	2.85732	1.95665	10.53058	8.43638	6.93192	36.23394	24.09951	13.12810	3.24794	2.76365	1.85737	10.59418	8.46190	7.08013	35.72228	23.72004	13.02174
29240	3.50284	3.01711	2.25903	10.35115	8.42858	6.88527	37.46071	25.06384	13.36399	3.21989	2.57330	1.95608	10.62829	8.57542	7.18814	35.71431	23.70519	13.02210
29400	3.69784	2.50690	2.30726	10.38170	8.40036	6.99356	36.29272	24.27068	13.15440	3.20905	2.49961	1.82520	10.70000	8.68337	7.04000	36.09861	23.70784	13.00188	31.64	6.1	0.00	7.57	0.01264	0.01287	0.01624	0.00779	0.00579	0.00637	0.00466	0.01262	0.01676	0.00678	0.00698	0.00879	0.01485	0.01090	0.01192	0.00218	0.00618	0.00866
29570	3.14349	2.55757	1.75986	10.37536	8.69933	6.98258	36.82169	24.81631	13.65402	3.24386	2.77753	2.04376	10.60742	8.74283	7.01414	35.92628	23.91566	13.06391
29730	3.17471	2.52120	1.77238	10.43459	8.45755	6.89894	36.56974	23.99629	13.06591	3.16688	2.51529	1.93061	10.39087	8.39695	6.86243	35.88029	23.88002	13.30770
29890	3.08538	2.48607	1.81116	10.55759	8.53183	6.91411	36.25030	23.96547	13.05786	3.35098	2.55514	2.03934	10.54154	8.37089	6.87842	35.80767	23.77328	14.27540
30060	3.24413	2.62147	1.98124	10.53877	8.48746	6.96277	36.88775	24.25478	13.09141	3.28929	2.95190	1.84245	10.80532	8.78618	7.15311	35.77823	23.73313	13.01714
30220	3.06846	2.44237	1.73194	10.52015	8.41940	6.86265	36.14634	24.01186	13.01255	3.30286	2.62053	1.92536	10.36544	8.33086	6.84149	35.72892	23.69093	12.99126
30380	3.06458	2.44185	1.73227	10.68805	8.55927	6.85585	36.51638	23.94175	13.02334	3.14654	2.51389	1.82910	10.36838	8.40164	6.83363	37.02443	24.20111	13.00261
30540	3.09345	2.48609	1.75291	10.35399	8.37679	7.08519	36.56974	24.16126	13.14653	3.23830	2.49999	1.85747	10.39381	8.42608	7.01680	35.79695	23.73285	13.08329
30710	3.50367	2.64101	1.90154	10.34755	8.36348	6.86021	36.15660	23.94449	13.02314	3.25009	2.51078	1.87707	10.62196	8.68840	7.16167	35.76221	23.68719	12.97245
30870	3.34734	2.96795	2.21729	10.35110	8.36722	6.86293	36.58045	24.21867	13.13957	3.18104	2.52718	2.03266	10.58413	8.35718	6.83853	35.73823	23.68940	12.96568
31040	3.09541	2.45546	1.73645	10.34693	8.36627	6.85529	35.77651	23.92639	13.00927	3.14367	2.49831	1.82734	10.38333	8.34386	6.83608	35.79479	23.68531	12.96881	31.64	6.1	0.00	7.60	0.01264	0.01287	0.01624	0.00779	0.00579	0.00637	0.00466	0.01262	0.01676	0.00678	0.00698	0.00879	0.01484	0.01090	0.01192	0.00218	0.00618	0.00866
31200	3.11984	2.46304	1.75286	10.35253	8.37822	6.91612	36.13369	23.98334	13.07180	3.15107	2.50814	1.83377	10.41179	8.38096	6.93856	35.66317	23.68697	12.98227
31360	3.08916	2.46001	1.78983	10.35225	8.38100	7.17705	36.68556	24.34118	13.24407	3.99166	3.55033	2.56347	10.43647	8.42546	6.98330	35.79078	23.94725	12.98171
31520	3.09733	2.48485	1.91559	10.35412	8.52708	6.86029	36.44934	23.92357	13.00671	3.65665	3.01720	2.20397	10.37936	8.63610	7.83634	36.21295	25.86660	14.91195
31690	3.34906	2.73872	1.82901	11.16114	9.73907	8.23309	36.35115	24.28384	13.78217	3.55003	2.75186	2.02560	11.66088	8.76457	6.91413	36.24789	23.75228	13.00103
31850	3.12030	2.59467	1.85229	10.35905	8.38317	6.88540	36.56987	24.05349	13.12665	3.33683	2.51945	1.92124	10.48279	8.40759	6.83152	35.73475	23.80245	13.58099
32010	3.06461	2.44711	1.73452	11.00119	8.78373	7.37647	36.10897	23.95795	13.09131	3.17946	2.50451	1.83801	10.38170	8.33733	6.86223	35.66053	23.68738	12.96397
32180	3.43462	2.85840	2.13398	10.35230	8.38540	6.85917	36.47580	24.15144	13.12096	3.14744	2.50106	1.83119	10.40367	8.34010	6.83877	35.66053	23.68946	13.02429
32340	3.07024	2.44462	1.73318	10.43979	8.39356	6.85561	36.60739	24.02413	13.05534	3.14630	2.51292	1.88198	10.74599	8.38909	6.88926	35.80551	23.67686	12.96828
32500	3.17688	2.60704	1.88402	10.35908	8.38005	6.85726	36.14138	23.97124	13.05154	3.14869	2.51107	1.87341	10.36615	8.33271	6.85814	35.78409	23.73835	12.97210
32660	3.12999	2.56701	1.80744	10.35979	8.52991	6.86214	36.13348	23.95725	13.01504	3.15366	2.49963	1.82703	10.36542	8.33193	6.83522	35.78009	24.88684	13.04864	31.58	6.2	0.00	7.57	0.01264	0.01287	0.01624	0.00779	0.00579	0.00637	0.00466	0.01262	0.01676	0.00678	0.00698	0.00879	0.01484	0.01090	0.01192	0.00218	0.00618	0.00866
32830	3.06489	2.43647	1.72882	12.02277	8.36926	6.99826	36.18995	24.03430	13.01235	3.20717	2.55781	1.89909	10.47558	8.65882	7.32797	35.79346	23.67888	12.96500
32990	3.50275	2.70898	1.89156	11.10040	9.10797	7.62782	36.39802	23.99613	13.14427	3.41425	2.59964	1.86499	10.42088	8.45788	6.90628	36.15302	23.86550	13.40722
33160	3.56263	2.89654	2.03437	10.50947	8.52982	7.01210	36.28737	24.16131	13.09521	3.17346	2.53184	1.91604	10.39079	8.34022	6.82871	35.89700	24.06674	13.55269
33320	3.08722	2.48299	2.13484	10.92925	8.37395	6.92747	36.59531	24.04907	13.09529	3.15367	2.51280	1.83801	11.07346	8.65332	6.93877	35.95666	23.82877	13.05295
33480	3.15032	2.77624	1.76079	10.44873	9.01426	7.53439	36.49043	23.94955	13.12079	3.57068	3.07226	2.28253	10.63037	8.65177	7.12906	35.78009	24.42065	13.45791
33650	3.13429	2.66091	1.99392	10.51539	8.52107	6.86118	36.06292	24.18529	13.07450	3.64563	2.83592	1.82795	10.78289	8.58617	7.13236	35.66057	23.68442	13.26716
33810	3.15819	2.53562	1.76414	10.45317	12.79431	8.05212	36.01390	23.94792	13.01324	6.04798	2.82558	1.87291	10.44059	8.33464	6.90741	36.05093	24.22684	13.22229
33970	3.43157	2.75822	1.88622	10.67486	8.57109	6.86319	36.51965	24.46460	13.37623	3.38123	2.62809	1.88864	10.48229	8.53857	6.99282	35.66849	23.69356	12.97082
34140	3.12885	2.49457	1.84502	10.34497	8.37037	6.97506	36.47541	23.95674	13.05750	3.44738	2.75401	2.13938	10.36664	8.33919	6.82925	35.73211	23.67708	13.01411
34300	3.07180	2.44772	1.75211	10.34354	8.47927	7.02428	36.03619	23.94293	13.00015	3.53682	2.83207	1.96398	10.39448	8.62304	7.00385	35.91647	23.71225	12.95936	31.64	6.1	0.00	7.56	0.01264	0.01287	0.01624	0.00779	0.00579	0.00637	0.00466	0.01262	0.01676	0.00678	0.00698	0.00879	0.01485	0.01090	0.01192	0.00218	0.00618	0.00865
34460	3.06828	2.46400	1.76219	10.34382	8.36454	6.87631	36.53529	24.03815	13.13609	3.19223	2.55536	1.97241	10.50793	8.40818	6.84931	35.88400	24.47682	13.53196
34630	3.19192	2.57316	1.74394	10.57430	8.68130	7.57483	36.32691	23.97514	13.00304	3.21724	2.53438	1.86133	10.36028	8.32346	6.81149	35.77516	23.75399	13.04972
34790	3.05724	2.43770	1.72961	10.38513	8.38174	6.89127	36.29997	23.94866	13.01421	3.14981	2.51176	1.83222	10.37254	8.32458	6.81966	35.67940	23.78779	13.27950
34950	3.09994	2.44423	1.73500	10.86048	9.61383	7.66772	36.20926	23.92097	13.00453	4.70829	3.81804	2.65777	10.40273	8.34766	6.89164	35.72850	23.66999	12.97320
35120	3.06863	2.44389	1.73781	10.34435	8.36621	7.14921	36.11084	23.95226	13.00882	3.17328	2.56721	1.86031	10.36376	8.33844	6.82301	35.74314	23.79941	13.01826
35280	3.09611	2.46409	1.76418	10.33974	8.36013	6.85502	36.46094	23.91312	13.02807	3.14203	2.49502	1.82780	10.43867	8.39497	6.83564	35.76181	23.82452	13.53353
35440	3.08351	2.44326	1.74304	11.57259	9.40264	7.93417	36.57000	23.90750	12.99772	3.13988	2.49225	1.82199	10.38351	8.35265	6.85754	35.67279	23.66930	12.96869
35600	3.11203	2.45134	1.72886	10.34749	8.36170	6.85274	36.18778	23.93669	13.00609	3.18671	2.58262	1.82842	10.43125	8.32759	6.88237	35.64241	23.73686	13.09783
35770	3.07412	2.45267	1.76086	10.40724	8.44130	6.91734	35.95118	23.97377	13.10599	3.17161	2.54565	1.84549	10.58350	8.34639	6.83421	35.74980	23.73477	12.99924
35930	3.23951	2.52249	1.79414	10.33699	8.36167	6.85139	35.78035	23.94196	13.00077	3.14615	2.49801	1.84253	10.66058	8.44038	6.82908	35.65833	23.66705	12.95681	31.64	6.3	0.00	7.65	0.01264	0.01287	0.01624	0.00779	0.00579	0.00637	0.00466	0.01262	0.01676	0.00678	0.00698	0.00879	0.01484	0.01090	0.01192	0.00218	0.00618	0.00865
36100	3.10899	2.51637	1.79418	10.34945	8.36291	6.98861	36.72356	24.25806	13.21012	3.37163	2.69598	2.28668	10.63628	8.53155	6.88242	35.76328	23.85586	13.13344
36260	3.24133	2.66724	1.96193	10.58512	8.51885	7.14501	36.34408	24.12735	13.19403	3.87437	2.73092	2.05856	10.37416	8.33477	6.84475	36.12498	24.24526	12.96802
36420	3.14570	2.46680	1.72783	10.34670	8.44354	6.87784	36.34321	23.95395	13.00004	3.29843	2.70353	2.10465	10.35174	8.32235	6.82846	36.93060	23.97362	13.11707
36590	3.07009	2.51243	1.78410	10.36669	8.50879	6.98551	36.20036	24.59232	13.12753	3.88300	2.50681	1.84581	10.58055	8.65903	7.15010	35.74194	23.80541	13.50635
36750	3.36117	2.70831	2.14310	10.48775	8.63304	7.16085	36.75713	23.96809	13.01111	3.46770	2.75993	1.89251	10.36898	8.33900	6.89493	35.66626	23.69390	12.97394
36910	3.10214	2.62742	1.95512	10.46900	8.37702	6.86452	36.54314	24.55805	13.43392	3.16355	2.50132	1.83900	10.46221	8.42621	6.97877	35.66097	23.66484	12.95395
37080	3.16708	2.59525	2.09793	10.34550	8.36855	6.86048	36.35281	23.94949	13.01632	3.15432	2.50634	1.83705	10.44547	8.39704	6.99328	35.83431	23.75857	13.00625
37240	3.34485	2.51303	1.74817	10.44408	8.49121	6.86371	36.14891	23.95429	12.98853	3.17453	2.52749	1.85669	10.36144	8.31914	6.81098	35.64908	23.66414	13.14462
37400	3.05948	2.43987	1.73110	10.37017	8.35979	6.85244	36.44576	23.92999	12.99992	3.62290	2.65639	2.11280	10.35632	8.40140	7.12010	36.11252	23.73808	13.14904
37570	3.19371	2.54464	1.75480	10.53008	8.41245	6.85009	35.69560	23.95486	13.04000	3.22127	2.64726	1.99155	11.03894	8.42809	6.83945	36.03564	23.66173	12.94920	31.64	6.3	0.00	7.61	0.01264	0.01287	0.01624	0.00779	0.00579	0.00637	0.00466	0.01262	0.01675	0.00678	0.00698	0.00879	0.01484	0.01090	0.01192	0.00218	0.00618	0.00865
37730	3.10699	2.51600	1.83838	10.63812	8.58932	7.01474	36.34829	23.98163	13.22042	3.36686	2.61564	1.91052	10.69949	8.55523	6.89861	35.74099	23.67846	14.09279
37890	3.23386	2.79259	2.52537	10.61796	8.60818	7.05376	36.68186	24.57382	13.75895	3.62266	2.51624	1.82631	10.85920	8.63765	6.87410	35.63895	23.66753	12.95285
38060	3.36062	2.76468	1.84262	10.33283	8.36367	6.86075	36.32476	23.90786	12.99813	3.15712	2.50789	1.85640	10.37149	8.34353	6.84090	35.75298	23.68261	13.00141
38220	3.09682	2.50294	1.74276	10.34749	8.35867	6.85690	36.44826	24.34506	13.36899	3.15982	2.49677	1.82754	10.82617	8.64926	6.93983	35.73167	23.66795	12.97050
38380	3.26189	2.81988	2.17291	10.53921	8.74133	7.09430	36.21051	24.06036	13.14503	3.33231	2.77237	2.07341	10.52351	8.54610	7.43938	36.09480	23.70965	12.96251
38550	3.28403	2.67243	2.09158	10.34411	8.40470	6.93415	36.27440	24.08359	13.07592	3.55790	2.63734	1.82778	11.12198	8.81470	7.11341	35.85889	23.87314	13.07459
38710	3.63763	2.86241	2.09025	10.34220	8.42365	7.10849	36.68276	23.97837	13.03478	3.26295	2.62133	1.95108	10.35921	8.32798	6.86571	35.66668	23.67528	12.96031
38870	3.26013	2.80571	1.98626	10.33350	8.35442	6.86903	36.73614	24.12011	13.02828	3.20224	2.51640	1.86050	10.36302	8.34911	6.88434	35.71438	23.93700	12.98980
39040	3.22702	2.74077	2.03730	10.35551	8.36858	6.90256	36.59027	23.97519	13.04552	3.20129	2.53842	1.91671	10.37099	8.33695	6.81885	36.09618	24.06033	14.54021
39200	3.07986	2.48854	1.82593	10.48480	8.64999	6.89047	36.06679	23.95912	13.06819	3.51639	2.84932	2.13901	10.43881	8.38969	6.85071	36.15173	23.85983	13.11870	31.64	6.1	0.00	7.68	0.01264	0.01287	0.01623	0.00779	0.00579	0.00637	0.00466	0.01262	0.01676	0.00678	0.00698	0.00879	0.01484	0.01090	0.01192	0.00218	0.00618	0.00865
39370	3.12837	2.83298	2.04825	10.91863	8.67912	7.00605	36.61750	25.01113	14.87751	3.99389	3.00753	2.10339	11.28686	9.21380	7.69409	35.77741	23.74467	13.00956
39530	3.23422	2.45558	1.76280	10.38596	8.36152	6.85239	36.56567	23.93456	13.01993	3.21079	2.56096	1.96003	10.37667	8.32823	6.97303	36.14896	23.94190	12.99929
39690	3.35502	2.65338	1.82382	10.40135	8.45316	6.88025	36.36365	23.94782	13.00565	3.17387	2.53617	1.90464	10.38509	8.33594	6.82785	35.72013	23.66558	12.95603
39860	3.07153	2.53189	1.73872	10.50198	8.87539	7.26943	36.95271	24.11673	13.00939	3.18675	2.58618	1.83342	10.38348	8.32674	6.81433	35.65261	23.66917	13.01934
40020	3.06098	2.44239	1.73560	10.35042	8.36050	6.85476	36.22488	23.92559	12.99073	3.30680	2.50285	1.86997	10.38516	8.32901	6.81878	35.90920	23.96409	13.39893
40180	3.06307	2.43965	1.72821	10.43570	8.36355	6.89138	36.63992	23.94072	13.37721	3.14730	2.58110	1.85907	10.36886	8.44775	6.95387	36.25350	24.40900	13.70177
40350	3.51780	2.67736	1.99730	10.34568	8.37158	6.86610	36.15621	23.96049	13.20567	3.15969	2.51493	1.83864	10.44519	8.40870	6.83938	35.93903	23.83858	13.07468
40510	3.05971	2.49890	1.74303	10.42500	8.40948	6.88365	36.98798	24.23890	13.26597	3.24715	2.59827	1.83346	11.25068	8.60704	6.86220	35.64470	23.66378	12.95498
40670	3.14274	2.46495	1.74450	10.37751	8.38428	7.15878	36.21455	23.93379	13.02807	3.23149	2.60477	1.90515	10.35645	8.32347	6.82120	35.68036	23.70019	13.24411
40840	3.08869	2.46347	1.82474	10.55466	8.43737	6.90381	36.03385	24.01043	13.09685	3.17922	2.52895	2.06098	10.47212	8.43994	6.89450	35.67802	23.66293	12.95185	31.58	6.1	0.00	7.56	0.01264	0.01287	0.01623	0.00779	0.00579	0.00637	0.00466	0.01262	0.01676	0.00678	0.00698	0.00879	0.01484	0.01090	0.01192	0.00218	0.00618	0.00866
41000	3.14017	2.89250	2.28108	10.33900	8.35985	6.85405	35.89375	24.04537	13.14477	4.02035	3.38853	2.29650	10.58786	8.40471	7.23627	35.67802	23.70765	13.08554
41160	3.12398	2.64817	1.94569	10.72307	8.84879	6.84841	36.31486	24.22983	13.14076	3.14187	2.52763	1.82417	10.53661	8.44779	6.87870	35.67670	23.66583	12.95547
41330	3.12008	2.60179	1.85139	10.33662	8.35880	6.85290	36.40826	23.98480	13.10440	3.14604	2.49740	1.82764	10.40324	8.34193	6.81911	36.28030	23.82068	13.01028
41490	3.06292	2.44001	1.72594	10.81585	8.61222	6.93065	36.32181	23.90770	12.99098	3.45038	2.62167	1.91705	10.35720	8.35520	6.82236	35.82992	23.90581	13.25846
41650	3.07679	2.45171	1.73604	10.38234	8.40615	6.86057	36.35403	23.97647	13.10620	3.28985	2.58394	2.05085	10.40486	8.34466	6.82898	38.17512	24.65183	13.33418
41820	3.06259	2.51703	1.81182	10.37723	8.36528	6.85945	36.77629	24.07280	13.09859	3.18095	2.49763	1.84877	10.42525	8.43031	6.91156	35.68860	23.70363	12.95593
41980	3.16180	2.55359	1.88850	10.38953	8.36806	6.84998	36.42582	23.96832	13.10268	3.15892	2.49586	1.84591	10.36860	8.42413	6.94546	35.76568	23.89760	13.04167
42140	3.07521	2.44005	1.72800	10.34356	8.46065	7.08482	36.23351	23.92067	13.08152	3.16410	2.50031	1.96626	10.46905	8.44354	7.02208	35.75901	23.70487	12.95261
42310	3.98275	3.24174	2.23401	10.39952	8.50507	6.99119	36.10081	24.01379	13.20986	3.36806	2.73974	1.89772	10.55009	8.35131	6.82180	35.74303	23.76359	13.07171
42470	3.21354	2.90702	1.87355	10.35063	8.38122	6.87872	35.96668	24.15995	13.12773	3.16295	2.65907	2.60170	10.42083	8.37398	6.84142	35.75456	23.67380	12.99487	31.64	6.1	0.00	7.71	0.01264	0.01287	0.01623	0.00779	0.00579	0.00637	0.00466	0.01262	0.01676	0.00678	0.00698	0.00879	0.01484	0.01090	0.01192	0.00218	0.00618	0.00866
42630	3.07890	2.45832	1.75865	10.33513	8.35584	6.84913	36.03744	24.07083	13.21176	3.22840	2.61538	1.92228	10.37495	8.33746	6.87567	35.73592	23.66592	12.94785
42800	3.33817	2.48022	1.76123	10.33303	8.49093	7.02941	36.68350	23.96157	13.15860	3.18605	2.59488	1.96984	10.83015	8.84432	7.16016	35.79193	23.65597	12.94736
42960	3.29581	2.71959	1.99473	10.34610	8.35393	6.84977	36.83618	24.11764	13.19582	3.14730	2.49367	1.82394	10.36338	8.32309	6.87814	35.68286	23.66025	12.97164
43120	3.08861	2.43393	1.72528	10.41743	8.35258	6.84681	36.14369	23.94385	13.03590	3.13714	2.50145	1.82322	10.35427	8.33628	6.81968	35.67096	23.74249	13.03329
43290	3.06010	2.43501	1.72794	10.45098	8.44516	6.86173	36.05352	23.91421	12.99286	3.14262	2.49659	1.82542	10.34773	8.31575	6.81033	35.66304	23.66357	12.96523
43450	3.11565	2.50390	1.82462	10.34850	8.37173	6.85580	36.58479	24.04358	13.25857	3.14293	2.50698	1.82927	10.35627	8.36047	6.93337	35.67228	23.65611	12.94427
43610	3.27439	2.77007	1.94765	10.33426	8.35985	6.85510	36.35177	24.08610	13.03649	3.56497	2.50649	1.89983	10.36023	8.38777	6.81511	35.81202	23.81475	13.20677
43780	3.07490	2.44441	1.72965	10.38132	8.55888	6.86065	36.12064	24.00512	13.01499	3.14709	3.02023	2.07098	10.61310	8.47408	6.87428	35.84826	23.65211	12.94683
43940	3.06995	2.44715	1.81100	10.32971	8.35773	6.87360	36.43763	23.93538	12.98697	3.35663	2.65424	1.82543	10.36691	8.32154	6.81357	35.70272	23.65625	12.95353
44100	3.05579	2.50528	1.78760	10.33088	8.57376	7.03028	35.77747	23.87067	12.99280	3.76260	2.66019	2.29045	10.62884	9.12667	6.99934	36.40171	24.59523	13.46089	31.64	6.1	0.00	7.63	0.01264	0.01287	0.01623	0.00779	0.00579	0.00637	0.00467	0.01262	0.01676	0.00678	0.00699	0.00879	0.01484	0.01090	0.01192	0.00218	0.00618	0.00866
44270	3.36750	2.45822	1.75994	10.71727	8.59023	6.84717	36.42082	23.88478	13.00531	3.14089	2.49680	1.86940	10.38119	8.33727	6.82533	35.67821	23.65015	12.96356
44430	3.12143	2.50471	1.75676	10.37268	8.38766	6.88730	36.21663	23.89874	13.00574	3.22049	2.56556	1.89231	10.38199	8.46908	6.93007	35.71529	23.68526	12.96814
44590	3.10269	2.45762	1.73770	10.33773	8.38516	6.86149	36.19687	24.17481	13.53069	3.14304	2.50188	1.84771	10.62782	8.51734	7.09681	36.18940	23.68222	12.96504
44760	3.25592	2.49211	1.76161	12.37306	8.95659	6.94411	36.55070	23.94133	13.08686	3.59268	2.59060	1.83182	10.39198	8.38933	6.82006	35.66368	23.66686	12.98809
44920	3.07214	2.46414	1.72840	10.33116	8.35185	6.84887	36.24851	23.90981	12.99504	3.81972	3.76360	2.64969	10.42161	8.69499	7.10634	35.69408	23.65139	12.97432
45080	3.10841	2.44086	1.72779	10.38641	8.39339	6.97043	36.21319	23.92159	12.98186	3.15337	2.60214	1.85287	10.35461	8.32293	6.81328	35.83542	23.79177	12.97626
45250	3.05967	2.44483	1.79975	10.34635	8.39363	6.92757	36.44983	23.95194	13.04255	3.17277	2.53852	1.84845	10.36321	8.32105	6.81209	35.69276	23.65360	12.94494
45410	3.29852	2.78084	1.88522	10.45513	8.37131	6.85792	36.06979	23.97037	12.99575	3.22738	2.55246	1.82660	10.35728	8.31709	6.81190	35.67028	23.66203	13.02467
45570	3.05917	2.43684	1.72426	10.39432	8.36409	6.85004	36.12844	23.92159	13.05164	3.14568	2.50129	1.82659	10.48483	8.34074	6.88801	35.74186	23.65250	12.94786
45740	3.07185	2.50020	1.75258	10.35284	8.37510	6.86849	35.92959	24.10061	13.15564	3.15376	2.49622	1.82978	10.42880	8.39272	6.93082	35.64258	23.66300	12.94951	31.64	6.1	0.00	7.62	0.01264	0.01287	0.01623	0.00779	0.00579	0.00637	0.00466	0.01262	0.01676	0.00678	0.00698	0.00879	0.01484	0.01090	0.01192	0.00218	0.00618	0.00866
45900	3.06583	2.48278	1.89161	10.38547	8.37841	6.86303	36.39069	24.12028	13.03285	3.16423	2.50919	1.85212	10.35532	8.31793	6.81150	35.76983	23.65361	12.94593
46060	3.18039	2.47883	1.84368	10.33859	8.35403	6.84922	36.49807	23.95898	13.22974	3.15608	2.50501	1.84343	10.39018	8.57167	7.01948	35.65312	23.66728	12.95516
46230	3.26601	2.54409	2.00037	10.33926	8.36158	6.86562	36.46980	24.14539	13.13611	3.15088	2.69948	2.06103	10.35032	8.31984	6.81568	35.67028	23.67433	12.94623
46390	3.17174	2.45273	1.83547	10.37879	8.38350	6.88046	36.14252	23.89526	13.00246	3.19754	2.50070	1.84334	10.37724	8.32580	6.81367	35.68879	23.71188	13.02185
46550	3.12834	2.53976	1.75285	10.33071	8.35489	6.84946	36.24640	23.98834	12.98890	3.14121	2.49421	1.82368	10.35661	8.44020	6.97133	35.63336	23.65969	12.94534
46720	3.12368	2.50175	1.73510	10.33104	8.35816	6.85634	36.32263	23.94545	13.05409	3.26203	3.24945	2.13503	10.35695	8.32248	6.80858	37.03677	23.78671	13.04857
46880	3.06881	2.44397	1.73467	10.33297	8.39516	6.87481	36.28271	23.90071	12.99425	3.34306	3.16639	2.57719	10.35036	8.31177	6.80922	36.08560	24.42616	13.67694
47040	3.05691	2.43355	1.72491	10.85757	8.35033	6.84580	36.42138	23.90369	12.97807	3.13975	2.49294	1.87507	10.39651	8.32143	6.82003	35.71529	23.65830	12.95325
47210	3.08705	2.48626	1.78363	10.38724	8.40346	6.85567	36.40558	23.92485	13.15845	3.33573	2.66207	1.92419	10.44532	8.45124	6.92838	35.71396	23.71785	13.02976
47370	3.17274	2.49460	1.77486	10.52434	8.85848	7.78048	35.59293	24.15069	13.33309	4.26298	3.60581	2.25428	10.44116	8.33651	6.92281	35.90848	24.05523	13.36093	31.64	6.1	0.00	7.73	0.01264	0.01287	0.01623	0.00779	0.00579	0.00637	0.00466	0.01262	0.01676	0.00678	0.00698	0.00879	0.01484	0.01090	0.01192	0.00218	0.00618	0.00866
47530	3.16113	2.57061	1.89524	10.72730	8.40521	6.85866	36.01308	24.07567	13.20547	3.14414	2.50272	1.82662	10.49979	8.45474	7.10887	35.71958	23.66851	12.94652
47700	3.21416	2.58474	1.90324	10.33157	8.35552	6.84927	36.90023	23.94584	13.13766	3.34242	2.56354	1.85264	10.66480	8.75099	7.00998	36.17019	23.93402	13.24190
47860	3.07056	2.45727	1.74739	10.95220	8.75086	7.35133	36.46312	24.03914	13.15458	3.50161	2.78785	2.19636	10.36468	8.39973	6.91123	35.65872	23.71449	13.01792
48020	3.09865	2.46135	1.76721	10.32740	8.34997	6.84568	36.17456	23.92387	12.98879	3.13946	2.49156	1.82555	10.50916	8.36431	6.85845	35.74084	23.70589	13.70561
48190	3.07347	2.56180	1.78091	10.66661	8.35909	6.96122	36.46930	24.04614	13.02924	3.24874	2.91912	2.29453	10.53600	8.84762	7.11814	35.74350	23.80753	13.63516
48350	3.07647	2.45064	1.74577	10.34163	8.35740	6.85287	36.41913	24.06414	13.35113	3.19577	2.53308	1.83657	10.46737	8.43013	7.08518	35.74749	23.71005	13.00451
48510	3.08432	2.45500	1.89122	10.33428	8.35567	6.85352	36.96863	24.16914	13.18731	3.25016	2.50649	1.85274	10.57021	8.42291	6.92015	35.72224	23.65704	13.00698
48680	3.07984	2.54877	1.99479	10.33450	8.36449	6.88041	36.28309	23.92934	13.00573	3.16584	2.54451	1.85748	10.39255	8.39066	6.87047	35.65740	23.67113	12.95266
48840	3.06021	2.44866	1.83553	10.33316	8.35718	6.85249	36.53303	23.99707	13.03291	3.14339	2.49315	1.82730	10.39526	8.38405	6.91767	35.74882	23.66132	12.95279
49000	3.14831	2.49097	1.73478	10.33025	8.35301	6.84636	35.65162	24.05301	13.00228	3.14103	2.49420	1.82570	10.35845	8.33460	6.89141	35.79224	23.75263	13.00260	31.64	6.1	0.00	7.62	0.01264	0.01287	0.01623	0.00779	0.00579	0.00637	0.00466	0.01262	0.01676	0.00678	0.00698	0.00879	0.01484	0.01090	0.01192	0.00218	0.00618	0.00866
49170	3.19623	2.48770	1.74964	10.39755	8.36337	6.86245	36.36802	24.13806	13.14517	3.14516	2.49900	1.82765	10.42818	8.45248	6.86741	35.66864	23.66866	12.95302
49330	3.07694	2.50565	1.76087	10.33836	8.35998	6.85308	36.32616	24.10375	12.99140	3.14699	2.51075	1.84167	10.35432	8.31918	6.81787	35.68318	23.67004	12.94931
49490	3.08290	2.52272	1.92275	10.33819	8.36260	6.85912	36.14937	23.98386	13.04581	3.18250	2.60648	1.91485	10.35392	8.32095	6.81676	35.70436	23.67613	12.96557
49660	3.06549	2.43825	1.72923	10.33570	8.36146	6.87458	36.17162	23.92271	12.99179	3.14699	2.49800	1.83603	10.35227	8.40802	6.81478	35.77620	23.68000	12.95193
49820	3.14034	2.57552	1.84200	10.41639	8.42390	6.86546	36.46900	23.91878	12.99106	3.44171	2.69591	1.88447	10.35590	8.31426	6.97546	35.99486	23.74176	13.01621
49980	3.06590	2.47911	1.80657	10.58399	8.60063	7.24251	36.40215	24.10114	13.21415	3.32675	2.57900	1.88932	10.61258	8.34423	6.82232	35.74554	23.66217	13.00498
50150	3.08403	2.43888	1.72662	10.35215	8.42092	6.97755	36.24643	23.91025	13.00669	3.15392	2.49629	1.82602	10.39847	8.33550	6.83746	35.80830	23.83267	13.03881
50310	3.06689	2.43952	1.73184	10.35311	8.36337	6.92680	36.32007	23.94083	12.98666	3.21941	2.58165	1.83516	10.35427	8.32077	6.81901	35.70171	23.66714	12.96942
50470	3.05638	2.43891	1.86691	10.33318	8.36636	6.95764	36.23349	23.87466	12.98903	3.15891	2.49836	1.85258	10.39215	8.38376	6.81507	35.82572	23.76937	12.97136
50640	3.06172	2.44003	1.73090	10.33918	8.36511	6.85800	35.80022	23.89043	12.99930	3.14068	2.50218	1.94085	10.47097	8.35800	7.02549	35.69335	23.66874	12.94931	31.64	6.3	0.00	7.74	0.01264	0.01287	0.01624	0.00779	0.00579	0.00637	0.00466	0.01262	0.01676	0.00678	0.00698	0.00879	0.01484	0.01090	0.01191	0.00218	0.00618	0.00866
50800	3.20399	2.53659	2.02580	10.42727	8.44339	6.85291	36.14468	23.92522	12.99214	3.98747	2.57113	1.82805	10.65877	8.54409	6.91533	35.64581	23.75284	13.05252
50960	3.07232	2.48246	1.79580	10.34318	8.35875	6.85410	36.34759	24.19241	13.06132	3.15668	2.50918	1.83021	10.44496	8.47985	7.03937	35.77708	23.66032	12.94694
51130	3.27629	2.49450	1.85709	10.33328	8.35419	7.05677	36.10458	24.00402	13.11606	3.24584	2.49729	1.86613	10.44529	8.37482	6.85700	35.99296	24.01447	13.19042
51290	3.18535	2.58021	1.90395	10.37322	8.36724	6.85329	36.44665	24.02375	12.98554	3.15997	2.54162	1.84018	10.38231	8.43402	6.88358	35.70262	23.65963	12.95305
51460	3.09359	2.48242	1.78653	10.56120	8.49724	6.88287	36.17035	23.96355	13.04082	3.14898	2.55645	1.91282	10.63988	8.38765	6.93898	35.75575	23.70210	12.96455
51620	3.13272	2.52927	2.06909	10.34469	8.36711	6.97310	35.85986	23.97668	13.10562	3.14739	2.90050	1.93676	10.47063	8.42526	6.92480	35.82928	23.92248	13.35736
51780	3.44346	2.99578	1.96682	10.48392	8.57512	7.08913	37.37371	24.90107	13.58537	3.32699	2.68662	2.14676	10.66302	8.69013	7.35502	35.68144	23.66626	12.95249
51950	3.35950	2.70720	1.94874	10.33848	8.53122	7.35217	36.30320	23.93282	13.00480	3.79437	2.83267	1.98099	10.41129	8.34320	6.82442	35.65635	23.69240	12.94727
52110	3.06212	2.43829	1.72808	10.49010	8.51712	6.86845	36.15323	23.89716	13.00951	3.16057	2.55420	1.86847	10.34726	8.31576	6.81241	35.73446	23.80706	13.05365
52270	3.06515	2.44343	1.75968	10.36762	8.35989	6.84987	35.95840	24.06604	13.09713	3.14295	2.50528	1.83815	10.34948	8.32154	6.82165	35.71021	23.69457	12.98184	31.64	6.0	0.00	7.63	0.01264	0.01287	0.01623	0.00779	0.00579	0.00637	0.00466	0.01262	0.01676	0.00678	0.00698	0.00879	0.01484	0.01090	0.01192	0.00218	0.00618	0.00866
52440	3.29053	2.66339	1.86857	10.33648	8.35915	6.85907	37.31530	24.26506	13.19002	3.15328	2.51461	1.84533	10.52814	8.63760	7.31445	35.68108	23.66234	13.01647
52600	3.41992	2.63779	1.77265	10.33514	8.35779	6.85218	36.38852	24.16834	13.49390	3.14994	2.58047	1.89410	10.58342	8.39776	6.89155	35.87334	24.26612	13.35030
52760	3.26114	2.96330	2.23237	10.35580	8.35875	6.84903	36.33003	24.20077	13.20710	3.13699	2.49036	1.82330	10.58863	8.50466	6.94776	35.90575	23.71080	12.95418
52930	3.33828	2.63714	1.78380	10.41759	8.55095	7.21257	36.34222	24.00120	12.99230	3.32363	2.65140	2.24065	10.35293	8.32239	6.81947	35.71552	23.68626	12.95129
53090	3.08504	2.50792	2.40779	10.33707	8.35785	6.85128	37.13916	24.87052	13.56518	3.14137	2.51436	1.82945	10.53701	8.39472	6.96579	35.66654	23.66897	13.02259
53250	3.23264	2.49638	1.79889	10.34182	8.40674	7.11278	36.33612	24.02705	13.11859	3.17621	2.51932	1.87317	10.35546	8.33904	6.85749	35.67051	23.68972	13.02613
53420	3.06169	2.46282	2.03932	10.38753	8.39473	6.97017	36.73865	23.98667	13.06954	3.37294	2.54544	1.88139	10.53993	8.51996	7.09399	35.76474	23.67284	12.95493
53580	3.64365	3.00331	2.41912	10.45431	9.36013	8.02173	36.96979	24.27505	13.43047	3.14048	2.50913	1.83187	10.50089	8.34660	6.81524	35.62964	23.65888	12.94909
53740	3.06227	2.45873	1.75923	10.35061	8.41799	6.86911	36.10199	23.91500	12.99511	3.14948	2.51898	1.86373	10.35647	8.32261	6.82066	35.78476	23.72594	12.95195
53910	3.06258	2.44312	1.72446	10.33494	8.37352	7.25959	35.88195	23.92518	12.99077	3.26389	2.51726	1.84949	10.34678	8.32656	6.81487	35.75157	23.75351	13.20230	31.69	6.1	0.00	7.60	0.01264	0.01287	0.01623	0.00779	0.00579	0.00637	0.00466	0.01262	0.01675	0.00678	0.00698	0.00879	0.01484	0.01090	0.01192	0.00218	0.00618	0.00866
54070	3.12099	2.47774	1.73115	10.33313	8.35637	6.85544	36.21984	23.93809	12.99664	3.14590	2.61435	2.05298	10.35773	8.31951	6.81651	35.73559	23.69181	13.04791
54230	3.07063	2.43946	1.74292	10.38973	8.43437	6.89515	36.69432	23.91852	13.01337	3.14059	2.49852	1.82840	10.35102	8.32638	6.83493	35.69443	23.65696	12.94890
54390	3.08622	2.44779	1.73113	10.33550	8.35819	6.84899	36.38310	24.02654	13.02029	3.15350	2.49094	1.82370	10.40706	8.33741	6.85025	35.96437	23.66524	12.96684
54560	3.26765	2.68322	1.94653	10.60410	8.72602	6.85252	36.28899	24.01465	13.01232	3.14320	2.53661	2.39084	10.37119	8.32774	6.81914	35.66004	23.66842	12.95557
54720	3.05519	2.44050	1.72591	10.33368	8.35902	6.88150	36.35250	23.91289	13.00975	3.14554	2.49454	1.82812	10.57693	8.55606	6.92509	35.70503	23.68461	13.84208
54890	3.06145	2.44042	1.72890	10.79351	8.81642	7.04174	36.19575	23.92706	13.03398	3.17904	2.53731	1.89124	10.35296	8.32029	6.81929	36.66052	24.43640	13.58524
55050	3.07891	2.48054	1.74180	10.33067	8.42375	7.13618	36.26300	23.96634	12.98800	3.17106	2.49359	1.82666	10.35522	8.42754	6.88488	35.68648	23.66635	12.95258
55210	3.32037	2.93637	1.97576	10.33215	8.36981	6.89796	36.37610	23.90837	12.98482	3.14395	2.49458	1.82656	10.34989	8.32070	6.81910	35.67457	24.02396	13.10539
55380	3.06953	2.44742	1.74098	10.40743	8.80639	7.02561	36.52239	23.94339	13.00452	3.27839	2.52393	1.95614	10.36901	8.38039	6.85509	35.90871	23.90947	13.33742
55540	3.26664	2.63671	1.86251	10.33314	8.37298	7.06368	35.86951	24.00954	13.03546	3.44907	2.93269	2.18752	10.37440	8.31249	6.81061	35.64922	23.67480	12.98590	31.64	6.0	0.00	7.61	0.01264	0.01287	0.01623	0.00779	0.00579	0.00637	0.00466	0.01262	0.01675	0.00678	0.00698	0.00879	0.01484	0.01090	0.01192	0.00218	0.00618	0.00866
55700	3.09848	2.53422	1.73582	10.36181	8.38552	6.85854	36.47077	24.19477	13.07567	3.18479	2.53496	1.83064	10.37705	8.39498	6.82689	36.03478	24.64029	14.60924
55870	3.06187	2.44025	1.72500	12.61433	9.24547	6.94457	36.19134	23.94182	13.00029	3.50130	2.60823	2.04596	10.35349	8.38336	6.93301	36.07183	23.84507	12.94457
56030	3.08207	2.44402	1.72961	10.36279	8.36736	6.86036	36.23177	23.94952	12.99358	3.19608	2.55609	1.86667	10.34960	8.31548	6.90572	35.71533	23.67424	12.95793
56190	3.06255	2.45868	1.80281	10.63671	8.37193	6.86570	36.09906	23.90246	13.04663	3.19536	2.52322	1.88694	10.35969	8.32908	6.80571	35.66504	23.75532	13.04774
56360	3.06157	2.44005	1.72455	10.32808	8.35395	6.84645	36.17333	23.90817	12.97927	3.32984	2.48812	1.91036	10.40345	8.35527	6.83013	35.80996	23.66457	12.94962
56520	3.08762	2.46893	1.74419	10.64755	8.55160	6.99169	36.43552	24.02678	13.42653	3.15789	2.54082	1.82547	10.91002	8.55746	7.01056	35.63868	23.67590	13.01715
56680	3.31463	3.72692	2.73996	10.64824	8.35564	6.84394	36.61302	25.49745	13.67113	3.13574	2.56243	1.86604	10.73622	9.72344	7.88147	35.82336	23.66056	12.94772
56850	3.27983	2.52772	1.82466	10.33985	8.35499	6.84743	36.46459	24.16516	13.14962	3.40048	2.51515	1.82555	10.37310	8.31638	6.81570	35.68883	23.65780	12.94424
57010	3.23400	2.59244	1.79321	10.32747	8.35274	6.84495	36.28362	24.05347	13.07812	3.13819	2.48991	1.82578	10.35404	8.34568	6.83128	35.73259	23.65380	12.97332
57170	3.06011	2.44060	1.76530	10.36996	8.52608	7.18284	35.52818	23.92808	12.99390	3.22675	2.56790	1.85741	10.34750	8.30375	6.80780	35.62054	23.67705	12.97417	31.64	6.3	0.00	7.68	0.01264	0.01287	0.01623	0.00779	0.00579	0.00637	0.00466	0.01262	0.01675	0.00678	0.00698	0.00879	0.01484	0.01090	0.01192	0.00218	0.00618	0.00866
57340	3.05425	2.43480	1.74157	10.36631	8.35978	6.85894	36.30747	23.94056	12.99900	3.24780	2.56449	1.86273	10.40938	8.38621	6.84624	35.70897	23.97237	12.99555
57500	3.07164	2.44403	1.72743	10.33764	8.35926	6.86377	36.13438	23.90879	12.99564	3.22648	2.74999	2.53657	10.40742	8.42087	6.86099	36.10240	23.68618	13.09198
57660	3.07359	2.46710	1.93476	10.57992	8.37694	6.85033	36.16002	23.97817	13.00029	3.73419	2.62874	1.83837	10.47284	8.42628	6.93658	35.74749	23.83640	12.95802
57830	3.08114	2.45047	1.72545	10.38023	8.51039	6.89336	36.14976	23.87695	13.00971	3.20465	2.50786	1.85515	10.37062	8.53363	6.90752	35.72888	23.90691	12.96637
57990	3.09479	2.46880	1.74803	10.33893	8.40488	6.97976	36.13609	23.92466	12.99918	3.18611	2.49798	1.82899	10.54878	8.97788	7.44248	35.62711	23.81408	12.96762
58150	3.98325	3.46107	2.40694	10.36245	8.43593	6.90455	36.22443	24.14482	13.08713	4.38351	2.63970	2.09344	10.40375	8.36742	6.86647	35.67588	23.70850	13.08965
58320	3.17530	2.90360	2.17781	10.94962	8.62620	7.00246	37.18865	24.79739	13.71312	3.16318	2.55301	1.91630	10.64812	8.66465	7.15002	35.73818	23.73893	13.05811
58480	3.06275	2.66552	1.85295	10.54188	8.48309	6.85002	36.41577	23.98685	13.27419	3.13739	3.09552	3.12034	10.59840	8.58145	7.00249	35.72888	23.85539	13.86007
58640	3.30094	2.56433	2.00534	11.23585	9.51558	8.02594	36.58849	23.91809	13.05154	4.84313	3.54165	3.33339	10.41715	8.79686	7.04586	38.88042	25.48807	13.50071
58810	3.16727	2.53966	1.82028	10.33322	8.39045	6.84583	35.92913	23.90057	13.00938	3.13945	2.49366	1.82855	10.36630	8.32708	6.82142	35.68460	23.65365	12.94240	31.69	6.3	0.00	7.62	0.01264	0.01287	0.01623	0.00779	0.00579	0.00637	0.00466	0.01262	0.01675	0.00678	0.00698	0.00879	0.01484	0.01090	0.01191	0.00218	0.00619	0.00866
58970	3.06915	2.44986	1.72864	10.33598	8.35287	6.84277	36.26169	24.10578	12.99321	3.13392	2.48760	1.82256	10.36031	8.40387	6.81136	35.69254	23.65931	12.94519
59130	3.29311	2.71453	2.05808	10.36690	8.43204	6.93044	36.24613	24.03299	13.09481	3.16121	2.49410	1.83001	10.39105	8.32903	6.81456	35.66874	23.65186	12.94125
59300	3.06568	2.46734	1.72409	10.33157	8.40224	6.84389	36.19703	23.89588	12.97298	3.14320	2.51942	1.83949	10.53665	8.33913	6.81523	35.72702	23.71704	12.94978
59460	3.07118	2.45611	1.74067	10.41708	8.41783	6.91239	36.12256	23.91387	12.98920	3.14179	2.49407	1.83973	10.64135	8.62619	6.92550	35.89716	23.67948	12.95514
59620	3.39293	2.90945	2.16003	10.36205	8.38630	6.89784	36.36863	24.38696	13.34851	3.31602	2.69298	1.98650	10.75857	8.35799	6.88843	35.65950	23.71399	12.95642
59790	3.12052	2.54862	1.90891	10.33584	8.35648	6.84444	36.50239	23.95465	12.98214	3.16536	2.49272	1.86899	10.34085	8.31700	6.84694	35.78430	23.66069	12.98237
59950	3.05787	2.43759	1.72741	10.36443	8.42276	6.93336	36.12938	23.86680	12.99463	3.14555	2.49553	1.83254	10.35118	8.32086	6.80488	35.73499	23.65765	12.94384
60110	3.05306	2.43327	1.72404	10.80822	10.69378	7.65717	36.21423	23.90219	12.98034	3.34506	2.50534	1.83774	10.88951	8.31384	6.80586	36.04828	23.89397	13.41582
60280	3.13697	2.58317	1.90553	11.66974	8.66076	7.14238	36.79270	24.22221	13.12508	3.18045	2.48757	1.84710	10.39717	8.44893	6.84439	35.76428	23.70053	13.01057
60440	3.16607	2.59767	1.89661	10.36249	8.40346	6.90351	35.75937	23.90547	13.00505	3.13708	2.49766	1.85768	10.36688	8.32026	6.80986	36.94502	23.95529	13.42005	31.69	6.0	0.00	7.62	0.01264	0.01287	0.01623	0.00779	0.00579	0.00637	0.00466	0.01262	0.01675	0.00678	0.00698	0.00879	0.01484	0.01090	0.01192	0.00218	0.00618	0.00866
60600	3.12055	2.50090	1.80871	10.74576	8.69239	7.03421	36.57771	23.96104	13.47995	3.29962	2.52942	1.82511	11.34918	8.66228	6.92402	35.64127	23.65216	12.95338
60770	3.56635	2.99750	2.57326	10.33259	8.35563	6.90822	36.62245	24.04299	13.10516	3.48978	2.50250	1.86530	11.05355	8.78774	7.29253	36.76655	24.23083	13.81087
60930	3.48268	2.79690	1.91180	11.58162	9.19970	7.48046	36.41826	24.05267	13.26827	3.18616	2.54351	1.83334	10.59147	8.69795	6.95678	35.81800	23.84426	13.38138
61090	3.23516	2.53497	1.81332	10.62144	8.55290	7.04912	35.96889	24.01589	13.26571	3.21132	2.48753	1.81935	10.42777	8.33648	6.80736	35.71132	23.65037	12.93533
61260	3.10406	2.45597	1.81416	10.32991	8.35951	6.84620	36.30727	24.07398	13.08540	3.14260	2.50018	1.93036	10.51726	8.40465	6.90400	35.73656	23.67440	12.96471
61420	3.14456	2.57073	1.79615	10.35092	8.35217	6.88104	36.47112	24.08578	13.35151	3.21164	2.52409	1.83034	10.91314	9.36143	6.96672	35.68615	23.66155	13.02411
61580	4.35241	3.87717	3.20902	10.45222	8.45989	7.83078	36.70531	26.50673	13.94842	3.47234	4.46641	6.02279	12.29545	9.15731	9.08302	42.53593	29.72565	19.29376
61750	6.47897	4.23811	3.19099	11.28861	9.71989	11.35095	36.71708	24.74522	13.55563	4.13183	3.80842	3.11341	11.75813	9.46588	8.48806	38.24097	25.52376	13.46883
61910	5.62181	4.82628	4.13447	13.59970	9.26495	7.56390	38.06223	24.13171	13.19556	5.49618	4.68549	2.46650	10.43036	8.42951	6.87455	36.28736	23.79852	13.52918
62070	3.52258	5.51128	4.53790	12.37958	10.11135	10.14878	36.76903	25.25247	13.67526	3.26815	2.58285	4.48984	11.89769	9.24954	8.21347	38.53300	28.04333	13.67447	31.64	6.1	0.00	7.59	0.01264	0.01287	0.01623	0.00779	0.00579	0.00636	0.00466	0.01262	0.01675	0.00677	0.00696	0.00877	0.01484	0.01090	0.01191	0.00218	0.00618	0.00865
62230	3.68404	3.38526	2.37345	11.82298	9.03543	7.30381	36.33786	24.80719	18.08812	4.68618	3.93718	3.17173	13.34178	11.37296	11.19562	43.36588	25.00978	14.15270
62400	7.45586	6.85456	8.45994	14.25691	11.22222	17.42751	40.62271	30.36391	18.04548	13.76016	5.28129	5.85566	13.23759	12.03433	12.39146	37.93203	24.18778	13.39213
62560	4.81805	7.16184	8.16718	10.89764	8.95519	10.18442	39.51052	28.89829	17.37618	4.44422	3.34687	3.09203	15.29354	13.78434	10.74449	47.59610	38.09639	19.23719
62730	7.25410	8.42115	6.35737	12.47557	11.02879	10.47987	41.03947	27.53792	17.56173	6.13263	5.63992	3.87870	12.98764	11.42117	7.78684	43.82117	31.08772	15.02650
62890	5.44088	4.03140	7.58479	20.61015	17.56795	21.38524	41.64336	30.15263	15.60213	12.62516	8.61960	14.12527	12.95833	13.65720	11.31633	39.92806	40.35551	16.23893
63050	6.31957	4.95084	5.69939	17.16509	21.47083	25.13184	41.42057	30.21300	18.64978	18.52105	19.49180	14.89250	17.41498	15.68367	12.15511	50.73176	27.29386	19.31135
63220	8.34367	7.48623	6.22606	36.56716	17.98645	10.05732	38.51950	26.78827	15.10181	15.01950	8.72635	13.77372	15.52385	13.53170	13.02196	40.24040	39.65957	20.56248
63380	9.14025	7.68524	6.93857	21.95005	17.21567	11.16622	42.40692	30.35595	18.00681	18.85803	14.71374	12.40744	12.62700	11.55197	11.46957	56.65502	32.12112	16.03898
63540	5.89134	6.30326	3.80737	17.67897	21.51213	16.22025	38.46974	29.91084	18.40680	5.21547	3.95198	9.40903	14.93946	12.12807	13.22241	38.53124	30.99585	21.87367
63710	4.98255	6.96531	5.40974	33.67205	26.28197	25.08993	40.87285	31.52877	17.44239	10.76251	11.57894	12.09472	13.49800	10.33943	13.79574	48.79983	31.72173	18.07893	31.64	6.2	0.00	7.66	0.01264	0.01287	0.01623	0.00779	0.00579	0.00636	0.00466	0.01262	0.01675	0.00676	0.00695	0.00876	0.01484	0.01090	0.01191	0.00218	0.00618	0.00865
63870	11.93567	10.34750	7.57097	28.87070	24.55768	11.33766	43.15966	28.81400	18.98381	11.90063	10.49945	7.83945	11.53174	10.81202	10.37935	44.07098	40.72225	33.08989
64030	5.42166	5.73958	5.80501	33.03567	22.87699	15.95893	40.45898	30.44430	19.07817	13.81594	9.87330	8.83154	13.98309	14.46559	11.71171	59.54814	32.11524	15.44738
64200	8.33618	7.37768	8.42887	13.31139	13.88160	9.74294	38.73764	25.91058	19.08290	8.48410	6.09591	6.46737	14.93722	12.97258	11.20722	39.84537	32.29010	23.38816
64360	6.09398	9.28844	8.65937	16.28233	13.15755	15.31165	41.10463	28.92196	20.45300	5.34381	6.78793	13.06005	15.41549	12.74174	9.78714	40.45111	27.96446	17.72902
64520	5.41752	6.12418	4.01575	15.28963	12.15778	14.06963	40.24540	29.97091	15.30362	13.08123	11.53985	22.82544	12.10540	10.06693	11.82121	68.35765	31.35981	20.93028
64690	9.33425	6.96683	7.75021	20.83098	25.50228	15.89279	39.27603	28.54644	20.34327	10.92463	14.41897	13.10053	15.36571	15.19765	15.14995	61.65446	47.04376	38.24064
64850	5.60640	6.66180	5.22545	19.55799	13.46521	12.48791	37.74873	25.93133	16.09702	6.14045	6.06539	9.16387	12.70779	10.33299	13.07710	44.15088	29.79945	23.82743
65010	10.07716	10.61750	11.51581	31.67690	29.62097	18.72291	44.33296	29.06833	23.37392	10.75466	7.59767	3.43733	18.57368	14.89471	13.19382	38.09766	30.39763	16.62489
65180	7.42488	9.39968	7.21285	17.88559	17.06379	10.90158	40.47083	29.99815	19.13780	10.22916	12.42974	11.70657	16.01584	14.37852	15.14658	40.42770	28.20538	17.72817
65340	4.98804	6.33360	7.73243	15.49845	10.90680	9.88635	42.53052	27.74746	18.00188	6.90915	5.63299	7.37735	12.87381	12.95552	10.38664	38.53736	29.26684	26.13135	31.69	6.0	0.00	7.98	0.01264	0.01287	0.01623	0.00779	0.00579	0.00636	0.00466	0.01262	0.01675	0.00676	0.00693	0.00874	0.01484	0.01090	0.01191	0.00218	0.00618	0.00865
65500	7.95808	5.75647	4.92062	19.64808	17.43957	21.10788	41.70533	30.64914	18.44379	12.88872	10.19625	9.88109	14.32579	11.65881	10.58169	38.62935	25.90177	16.02110
65660	11.24195	9.86008	8.50115	24.48927	18.13560	14.74243	37.71552	27.62059	21.20498	9.91273	9.16540	11.43159	20.28464	16.67788	16.20189	43.92959	30.63913	20.65873
65830	9.35203	9.01801	8.84205	18.73221	23.10619	17.94788	41.42440	29.78381	20.83662	5.14466	6.85486	8.19862	17.25993	11.99558	10.10464	43.70271	28.81702	29.24693
65990	5.66401	10.11159	7.63457	26.55487	16.80614	15.93956	44.00636	29.13288	15.41115	21.81519	19.81010	11.79721	16.44521	17.64213	14.28911	45.36896	34.11877	14.71659
66150	9.31423	7.60358	8.24121	25.14469	17.33943	17.84536	43.33648	31.05987	21.44142	13.11768	16.59829	18.81343	20.47064	15.92181	11.57367	41.98483	30.14936	18.25109
66320	10.88594	8.12687	6.68978	15.27153	14.64430	17.07332	43.58539	32.86260	22.72419	8.51975	8.60159	8.17470	19.47926	16.73119	11.52051	41.76115	33.96629	25.57294
66480	7.88942	6.86260	9.99905	14.69278	15.60435	12.89299	42.17720	32.02496	21.71117	15.08448	18.29137	14.98221	16.99267	14.25010	13.74186	50.52849	31.38552	19.56273
