WetView ver 7.1	07-17-2018	11:48:39
AC9 Absorption and Attenuation Meter
00000266		; Serial number
2	; structure version number
Reserved
0.000000	0.000000		; Depth calibration
19200			; Baud rate
0.100000			; Path length (meters)
31			; number of temperature calibration bins
				12.59339	13.44920	14.48425	15.49668	16.50852	17.49564	18.50545	19.52458	20.50176	21.48889	22.47318	23.48707	24.50962	25.49370	26.49784	27.51372	28.50746	29.47237	30.47938	31.50214	32.50470	33.49235	34.50337	35.50914	36.50618	37.52058	38.51018	39.51308	40.49994	41.49866	42.47204	; temperature bins
a650	Blue	20.34952		-0.00383	-0.00415	-0.00430	-0.00391	-0.00363	-0.00317	-0.00269	-0.00237	-0.00179	-0.00130	-0.00099	-0.00071	-0.00015	0.00000	0.00004	-0.00001	0.00015	0.00036	0.00058	0.00101	0.00161	0.00132	0.00160	0.00169	0.00242	0.00273	0.00336	0.00365	0.00427	0.00566	0.00670		; offset and temperature correction info
a676	Green	20.51193		-0.00398	-0.00384	-0.00360	-0.00306	-0.00302	-0.00255	-0.00235	-0.00212	-0.00163	-0.00136	-0.00118	-0.00089	-0.00029	0.00000	0.00068	0.00082	0.00099	0.00137	0.00145	0.00212	0.00260	0.00252	0.00321	0.00354	0.00457	0.00535	0.00617	0.00648	0.00742	0.00887	0.01002		; offset and temperature correction info
a715	Brown	20.23230		-0.00421	-0.00394	-0.00391	-0.00291	-0.00264	-0.00192	-0.00204	-0.00179	-0.00188	-0.00239	-0.00180	-0.00187	-0.00099	0.00000	0.00084	0.00162	0.00188	0.00224	0.00321	0.00381	0.00466	0.00528	0.00588	0.00696	0.00859	0.01041	0.01148	0.01282	0.01333	0.01456	0.01617		; offset and temperature correction info
c510	Red	20.40042		-0.00261	-0.00247	-0.00258	-0.00225	-0.00203	-0.00197	-0.00199	-0.00203	-0.00154	-0.00103	-0.00069	-0.00019	-0.00007	0.00000	0.00011	-0.00021	-0.00042	-0.00056	-0.00040	0.00011	0.00036	0.00050	0.00077	0.00079	0.00050	0.00042	0.00043	0.00092	0.00147	0.00200	0.00232		; offset and temperature correction info
c532	Magenta	20.40760		-0.00248	-0.00265	-0.00278	-0.00279	-0.00296	-0.00292	-0.00238	-0.00206	-0.00129	-0.00096	-0.00092	-0.00052	-0.00009	0.00000	0.00007	-0.00049	-0.00136	-0.00107	-0.00079	-0.00065	-0.00074	-0.00105	-0.00152	-0.00192	-0.00236	-0.00269	-0.00252	-0.00233	-0.00172	-0.00128	-0.00067		; offset and temperature correction info
c555	Black	20.50654		-0.00053	-0.00063	-0.00106	-0.00094	-0.00068	-0.00055	-0.00053	-0.00039	-0.00028	-0.00025	-0.00011	-0.00035	-0.00007	0.00000	-0.00037	-0.00055	-0.00036	-0.00014	0.00019	0.00044	0.00032	0.00040	0.00050	0.00028	0.00014	0.00013	0.00030	0.00073	0.00117	0.00176	0.00241		; offset and temperature correction info
a412	LtBlue	17.15231		-0.01972	-0.01823	-0.01612	-0.01381	-0.01272	-0.01080	-0.00959	-0.00866	-0.00710	-0.00532	-0.00354	-0.00148	-0.00028	0.00000	0.00176	0.00297	0.00394	0.00440	0.00453	0.00487	0.00804	0.00856	0.01065	0.01248	0.01388	0.01439	0.01659	0.01881	0.02256	0.02450	0.02719		; offset and temperature correction info
a440	LtGreen	18.00171		-0.00729	-0.00642	-0.00581	-0.00502	-0.00426	-0.00349	-0.00244	-0.00218	-0.00179	-0.00101	-0.00046	-0.00006	0.00036	0.00000	0.00040	0.00045	0.00030	-0.00015	-0.00024	-0.00035	0.00012	-0.00013	-0.00033	-0.00089	-0.00142	-0.00189	-0.00231	-0.00205	-0.00140	-0.00140	-0.00146		; offset and temperature correction info
a488	Yellow	18.86491		-0.00113	-0.00102	-0.00106	-0.00064	-0.00027	-0.00020	-0.00030	-0.00037	-0.00047	-0.00059	-0.00052	-0.00012	0.00008	0.00000	0.00025	0.00012	-0.00013	-0.00043	-0.00065	-0.00076	-0.00025	0.00010	0.00090	0.00111	0.00113	0.00104	0.00073	0.00068	0.00120	0.00186	0.00258		; offset and temperature correction info
c650	Blue	20.46075		-0.00145	-0.00097	-0.00092	-0.00139	-0.00185	-0.00196	-0.00237	-0.00266	-0.00238	-0.00163	-0.00083	-0.00041	-0.00010	0.00000	0.00005	-0.00001	0.00015	0.00034	0.00029	0.00065	0.00101	0.00164	0.00126	0.00156	0.00175	0.00270	0.00287	0.00371	0.00407	0.00473	0.00534		; offset and temperature correction info
c676	Green	20.10118		-0.00170	-0.00144	-0.00149	-0.00177	-0.00188	-0.00194	-0.00198	-0.00196	-0.00177	-0.00156	-0.00140	-0.00091	-0.00033	0.00000	0.00050	0.00092	0.00110	0.00141	0.00167	0.00199	0.00216	0.00265	0.00269	0.00289	0.00315	0.00374	0.00367	0.00408	0.00486	0.00561	0.00646		; offset and temperature correction info
c715	Brown	19.91219		-0.01201	-0.01097	-0.00859	-0.00680	-0.00651	-0.00592	-0.00535	-0.00440	-0.00387	-0.00303	-0.00222	-0.00153	-0.00028	0.00000	0.00093	0.00149	0.00247	0.00322	0.00330	0.00427	0.00373	0.00464	0.00536	0.00551	0.00643	0.00733	0.00779	0.00884	0.00899	0.01021	0.01120		; offset and temperature correction info
a510	Red	19.21192		0.00201	0.00193	0.00158	0.00098	0.00089	0.00049	0.00011	-0.00016	-0.00016	-0.00005	0.00028	0.00025	0.00006	0.00000	0.00035	-0.00022	-0.00023	-0.00080	-0.00144	-0.00154	-0.00153	-0.00204	-0.00220	-0.00219	-0.00190	-0.00128	-0.00069	-0.00018	0.00068	0.00152	0.00241		; offset and temperature correction info
a532	Magenta	19.41084		-0.00097	-0.00072	-0.00060	-0.00081	-0.00062	-0.00071	-0.00040	0.00020	0.00028	0.00043	0.00000	-0.00035	0.00007	0.00000	-0.00011	-0.00059	-0.00080	-0.00098	-0.00137	-0.00162	-0.00163	-0.00130	-0.00073	-0.00018	0.00090	0.00185	0.00175	0.00247	0.00291	0.00327	0.00349		; offset and temperature correction info
a555	Black	19.69776		0.00171	0.00183	0.00183	0.00186	0.00191	0.00170	0.00115	0.00131	0.00097	0.00073	0.00060	0.00013	0.00015	0.00000	0.00014	-0.00029	-0.00066	-0.00082	-0.00116	-0.00139	-0.00134	-0.00167	-0.00119	-0.00093	-0.00048	0.00053	0.00111	0.00095	0.00178	0.00206	0.00273		; offset and temperature correction info
c412	LtBlue	19.91180		-0.02051	-0.01853	-0.01589	-0.01311	-0.01059	-0.00877	-0.00705	-0.00581	-0.00413	-0.00231	-0.00098	-0.00066	-0.00011	0.00000	-0.00013	-0.00085	-0.00170	-0.00170	-0.00302	-0.00330	-0.00429	-0.00551	-0.00626	-0.00775	-0.00978	-0.01181	-0.01113	-0.01108	-0.01116	-0.01192	-0.01291		; offset and temperature correction info
c440	LtGreen	20.06241		-0.01064	-0.00992	-0.00892	-0.00766	-0.00639	-0.00531	-0.00478	-0.00384	-0.00287	-0.00187	-0.00102	-0.00063	-0.00023	0.00000	-0.00007	-0.00053	-0.00090	-0.00119	-0.00169	-0.00197	-0.00226	-0.00257	-0.00260	-0.00289	-0.00394	-0.00470	-0.00481	-0.00493	-0.00520	-0.00580	-0.00620		; offset and temperature correction info
c488	Yellow	20.35984		-0.01125	-0.01082	-0.00966	-0.00833	-0.00726	-0.00661	-0.00579	-0.00500	-0.00389	-0.00278	-0.00167	-0.00113	-0.00041	0.00000	0.00055	0.00121	0.00187	0.00226	0.00222	0.00251	0.00281	0.00359	0.00414	0.00427	0.00401	0.00404	0.00486	0.00563	0.00638	0.00684	0.00718		; offset and temperature correction info
0.003500	0.004000	0.015000	0.020000	0.015000	0.020000	2500.000000	2000.000000	1000.000000	; maxANoise	maxCNoise	maxADifference	maxCDifference	minACounts	minCCounts	minRCounts	maxTempSdev	maxDepthSdev
0			; auxilliary capabilities
1			; acquisition binsize
0	12.90486	15.70342	15.26858	108.19670	97.36369	102.90807	25.01699	18.06010	19.11970	94.01917	76.91821	84.75946	20.44374	19.48534	19.83803	84.31584	93.45424	77.68443	26.11	6.1	0.00	7.38	0.01274	0.01292	0.01662	0.00775	0.00577	0.00633	0.00468	0.01267	0.01687	0.00672	0.00684	0.00882	0.01492	0.01097	0.01198	0.00217	0.00615	0.00863
160	17.28386	17.62912	17.69124	85.47544	84.57964	110.58063	23.08030	20.83828	21.52137	86.67948	101.05181	73.64147	17.63476	18.24112	16.66184	79.92218	53.36735	56.27749
320	15.09531	15.35817	18.12754	33.35329	48.93256	81.50741	18.47303	18.11803	13.46247	43.73933	74.76380	93.85621	12.14936	15.82722	16.44088	47.19696	51.50357	90.74858
490	12.27160	10.79528	9.52898	44.64257	72.78335	53.50441	15.88577	11.19139	7.36865	45.16698	35.63038	42.73766	9.75077	10.83812	10.06085	82.43532	97.65927	56.91135
650	7.12587	6.51931	5.18993	43.50187	48.40227	33.37294	9.81871	7.68268	5.62262	45.29268	66.50217	50.34422	8.35575	6.73838	7.84406	46.82892	68.17906	62.63181
820	6.71797	6.98886	8.31154	66.51455	43.92296	31.42097	11.80875	10.47616	4.04890	40.10755	43.31783	39.16403	6.42844	5.82205	6.84772	42.20479	49.66387	56.94614
980	2.64181	5.03621	3.52000	45.88795	35.04100	30.04273	12.26386	8.99419	3.78237	40.21572	35.50556	19.49671	4.58464	3.32279	3.43522	28.52375	24.68882	21.11281
1140	3.94027	3.14254	3.69040	22.11850	23.77654	23.20018	7.61002	6.67262	5.72464	30.49578	14.78938	17.57088	4.41611	4.97106	6.89708	11.54873	19.55169	7.95455
1310	5.20700	4.24780	3.87595	12.24924	17.30721	10.94577	6.36103	6.35910	7.00178	12.57548	16.59778	12.27467	7.44836	5.60110	6.97209	16.48904	15.66444	18.62750
1470	7.33941	7.58318	8.72020	9.82699	20.23559	15.36613	7.60419	6.42841	8.10209	9.73658	10.29398	15.14482	5.58176	4.90835	6.39421	39.58174	12.44842	17.58640
1630	1.62619	3.85350	4.21621	22.38748	18.93663	29.17791	8.42391	6.06663	5.78503	16.82538	19.98178	22.20154	5.14057	6.23432	4.61666	25.26763	20.23480	14.58346	26.17	6.2	0.00	7.42	0.01274	0.01291	0.01662	0.00775	0.00577	0.00632	0.00468	0.01267	0.01687	0.00672	0.00684	0.00882	0.01491	0.01097	0.01198	0.00217	0.00615	0.00863
1800	2.77739	3.66947	5.01739	7.16460	5.49336	6.23203	5.94099	5.46844	2.86417	6.50915	8.84516	10.62890	6.13608	6.23204	3.30055	10.97428	13.43976	11.83242
1960	3.11576	3.31655	1.59509	10.03977	21.71854	23.29005	6.36004	6.05201	4.82781	11.59780	15.04845	21.44282	6.62436	4.64919	4.75512	22.18158	19.74107	25.59186
2130	3.11168	3.99355	4.32871	26.96547	16.93647	20.27805	9.90071	6.49326	4.86808	27.37552	20.93993	15.30206	2.69190	6.77627	3.62214	20.01367	18.73492	17.39865
2290	3.96647	3.43113	3.94710	19.61097	8.32168	14.08803	9.34075	6.07939	5.35177	11.70314	11.98295	8.84107	4.46175	3.23937	4.98663	9.77429	7.72584	15.86092
2450	2.44650	2.79888	5.90455	16.11716	16.21883	19.22594	10.47239	6.59733	6.31263	19.74813	6.92239	16.68501	5.20805	5.13533	7.81726	16.89943	13.55221	18.25401
2620	5.22943	3.43115	5.49253	14.76783	10.23404	9.49503	12.94129	11.44834	12.36791	25.02577	27.79322	24.29303	8.78273	8.64717	7.01499	28.12019	16.48551	29.93072
2780	5.28418	5.71866	3.45804	18.27773	25.93939	22.93022	8.53639	5.87016	4.30687	17.60944	11.72027	13.41031	3.65219	3.06258	4.98280	22.78431	15.93005	8.53384
2950	5.57501	3.98467	2.82460	12.82661	13.22587	7.92767	9.51000	5.14397	3.78592	8.95282	12.28754	11.10087	3.90566	4.81019	3.47079	19.05759	17.84455	20.25330
3110	4.98628	4.68134	5.47232	23.32359	29.07752	21.39141	9.39283	10.17927	8.13679	33.05614	20.80968	22.84451	8.60011	4.31314	5.18902	22.59072	55.72622	20.35940
3280	10.24977	9.19294	5.35434	19.52977	29.30061	25.74657	13.11262	11.12921	9.48438	31.66514	14.02406	14.16714	6.58259	5.23844	3.89372	18.51897	21.97354	23.12749	26.17	6.1	0.00	7.37	0.01273	0.01291	0.01661	0.00775	0.00576	0.00632	0.00468	0.01267	0.01687	0.00672	0.00684	0.00882	0.01491	0.01097	0.01198	0.00217	0.00615	0.00863
3440	4.36393	5.32399	8.20078	18.40533	11.23336	14.54697	9.67004	10.33443	8.19095	7.27182	6.31931	10.08782	7.22641	7.16396	4.07688	12.76166	8.28521	5.70444
3600	1.78934	3.23782	5.78944	15.17712	22.47844	12.23165	10.58746	7.97973	5.21218	16.24330	10.07877	5.04795	8.53982	9.41994	5.23353	8.68814	7.31150	5.34437
3770	4.87445	4.56546	7.05652	6.03667	5.19370	12.51757	7.18573	8.52758	6.35782	3.90446	8.13616	15.97250	3.88837	4.20546	5.48928	11.85517	15.55741	10.53185
3930	5.80881	4.36073	4.53421	10.07893	19.56753	20.24533	11.37166	7.73297	4.86938	10.44166	14.67656	20.73359	6.96914	8.29026	6.50895	22.05181	9.32408	5.99670
4100	5.22193	4.80050	5.29601	13.80628	10.35734	10.28195	11.31021	10.48073	10.71659	12.14711	12.84433	5.77683	4.21306	3.23821	5.44480	11.51877	28.13579	23.69907
4260	5.56158	3.95739	3.70432	20.39366	20.13086	27.78021	14.68019	9.26145	8.49848	43.20637	29.23079	28.03640	8.00184	4.30934	6.63175	19.84851	28.43978	18.93166
4430	4.91699	5.48903	5.66982	14.18746	13.99386	18.63570	9.70692	7.58963	4.82898	16.14607	14.21441	16.00042	3.11162	4.42557	3.44178	18.22753	20.46257	11.07145
4590	5.03400	2.11698	2.81772	26.22499	30.69788	11.11934	10.21075	5.68972	4.25940	22.91980	10.73114	10.21659	7.55532	6.86357	10.10452	23.69997	26.00462	23.93103
4750	6.66403	8.77556	7.92420	23.22782	17.35859	23.54824	12.92065	11.05234	8.45673	15.57681	21.84484	21.16379	6.15393	6.21931	4.61925	22.65610	11.03626	11.98416
4920	3.56074	3.49035	1.97334	8.94821	10.91476	7.97563	6.68220	5.47341	2.89040	4.55319	5.35542	9.42488	2.82262	2.62171	3.54176	10.85464	12.94712	9.92247	26.23	6.1	0.00	7.51	0.01273	0.01291	0.01661	0.00775	0.00576	0.00632	0.00468	0.01267	0.01687	0.00672	0.00684	0.00882	0.01491	0.01096	0.01198	0.00217	0.00614	0.00863
5080	4.09070	3.28415	6.04907	8.24745	7.01836	7.41028	7.17351	7.13199	4.48340	7.48033	7.75511	5.27985	4.25489	4.20831	3.99041	12.06842	12.03078	12.01622
5240	5.23547	3.73735	5.49735	12.94453	5.53470	9.64416	8.11965	8.69308	9.46285	7.29350	9.76121	9.95474	8.56302	8.21582	8.00662	16.69326	16.26061	9.48462
5410	3.29301	3.44508	5.57320	11.27252	7.93170	5.70944	8.98237	7.13850	8.26052	3.31127	9.62058	13.13872	7.21359	6.38893	5.11303	15.67909	11.81208	11.77153
5570	3.74203	3.68812	4.61526	11.45172	11.72752	11.77603	7.30025	4.00654	3.25985	14.29311	12.57161	12.55851	9.50473	5.18136	3.12119	23.90248	25.01234	12.11753
5740	7.70680	5.98747	7.22660	16.00245	10.67919	18.16116	11.64916	8.35902	6.45386	10.21188	10.97643	9.15592	3.20891	3.43363	4.11344	13.54086	11.99072	5.06583
5900	5.99960	4.84401	3.46005	15.92165	16.19998	15.95872	8.60892	7.49330	6.11496	12.14174	18.69710	18.74295	5.37368	7.82038	8.21256	30.08069	30.26792	18.75077
6070	6.99152	6.28893	7.98488	23.15613	27.00842	43.26036	14.93804	10.35691	7.30032	26.90534	23.31867	31.51559	8.20300	6.77906	6.74073	25.90777	23.94372	18.63464
6230	4.65532	4.28971	6.88465	16.14360	14.41269	19.36289	12.87470	10.03862	7.93259	17.06010	23.47565	26.19836	11.28509	11.49588	8.24971	21.60651	21.27265	23.55279
6390	6.00872	6.08231	4.44985	11.62613	13.50927	14.05364	13.30919	9.16539	6.20943	10.36709	12.72604	20.58712	5.31027	4.82723	7.61335	21.49754	18.97895	11.14800
6560	6.80684	4.35600	4.41745	12.08106	21.78645	22.19045	9.69349	4.55284	5.71876	35.98013	29.37826	19.72997	5.64180	7.18586	6.24037	26.23042	21.87557	15.23675	26.11	6.0	0.00	7.44	0.01273	0.01290	0.01661	0.00775	0.00576	0.00632	0.00468	0.01267	0.01686	0.00672	0.00684	0.00882	0.01491	0.01096	0.01198	0.00217	0.00614	0.00863
6720	3.60938	7.19813	5.94334	11.36512	14.38292	22.50631	9.77183	7.97546	7.43279	16.45200	14.59582	10.84437	8.60997	6.53233	5.54180	10.33968	15.14294	16.23401
6890	4.79047	2.80065	5.61291	10.95636	18.80923	9.08490	10.78107	4.66511	6.50579	26.32905	20.59458	16.39714	4.48630	4.25400	3.35486	18.74981	28.91801	25.25421
7050	3.25739	4.62643	5.41237	15.51575	15.05189	20.45721	9.07388	7.75751	5.95676	21.58824	19.46997	40.98316	9.50638	7.03175	6.34350	63.30627	25.31434	30.96945
7210	5.31025	6.43330	7.48262	31.09369	41.06968	25.52016	17.08866	11.16449	10.13104	34.11006	26.38476	13.70307	7.79104	7.56737	9.41726	25.42036	40.41928	28.68634
7380	6.33773	7.31938	4.92110	16.31485	18.91082	13.96591	10.21963	5.69037	4.34765	11.47302	15.56481	25.28788	3.74020	7.33697	6.13645	16.24581	13.72653	7.30671
7540	6.49884	8.44526	7.07626	13.75212	11.30213	15.01548	11.52611	8.95649	8.17920	18.98463	14.71118	15.47431	9.87482	6.21416	6.64780	23.80805	11.73832	6.14765
7700	5.04610	3.85602	3.33312	17.36642	13.93919	12.92625	8.84379	5.85663	6.40797	14.42374	8.73633	8.09991	4.70742	7.11391	2.11637	12.13986	7.13442	8.54477
7870	3.27496	3.69767	2.35653	8.16457	8.17494	9.03017	9.97488	8.41317	7.45986	12.45470	8.73605	15.10904	7.63801	6.40302	6.93632	17.66829	15.59495	9.66156
8030	3.86055	1.88391	2.56705	3.22949	4.69451	6.51461	6.15052	4.68561	2.81381	10.25910	7.73091	7.80644	5.21552	5.11310	5.35036	13.63675	14.76830	8.97039
8200	5.02705	5.71718	5.85261	6.41492	14.27400	9.16653	10.48737	8.54936	6.00561	13.01659	8.64236	9.08650	3.71274	3.59435	3.98295	9.19629	6.21228	6.74148	26.17	6.0	0.00	7.36	0.01273	0.01290	0.01661	0.00775	0.00576	0.00632	0.00468	0.01267	0.01686	0.00672	0.00684	0.00882	0.01491	0.01096	0.01198	0.00216	0.00614	0.00863
8360	4.18052	5.56430	4.43841	12.27642	9.18241	7.03307	8.62881	5.79861	5.13863	10.01961	15.31964	7.45728	7.20376	7.62136	5.49726	22.21046	17.68624	18.33973
8520	6.86855	6.22114	5.46829	10.40917	6.24329	14.91924	8.68954	9.12892	7.46590	12.54661	12.21698	9.67352	7.54550	10.80572	7.80203	14.79521	10.22566	6.56929
8690	7.44361	8.81111	9.17938	11.70346	21.05443	13.01477	11.42418	9.48320	8.02330	9.55117	21.27982	14.26624	8.42216	10.91711	8.31692	18.97803	12.20775	16.22904
8850	6.17809	6.10016	4.43732	21.16900	32.75041	11.78895	10.66598	8.28406	5.61994	22.49818	29.65392	24.23457	3.46057	3.63352	3.84111	15.36319	13.91740	18.37372
9020	6.34960	7.09208	7.71731	31.65289	14.73092	27.39770	12.30947	7.54070	5.86713	33.23577	24.89505	25.51254	8.19784	3.62221	5.94110	18.28882	32.91738	36.53536
9180	5.16978	4.24741	3.83324	19.86206	23.86117	14.66284	12.28995	11.67032	6.67517	14.23035	7.09682	11.65436	7.21619	11.22855	7.70587	22.52548	24.41088	23.25439
9350	9.66071	4.82922	6.90015	27.78141	24.01131	41.40709	12.98828	11.15389	11.59003	36.31642	36.65179	39.71938	13.41030	11.87424	11.89304	52.41332	48.59498	39.80428
9510	11.81933	9.90334	12.13391	31.02715	65.37982	33.73206	16.49912	13.46002	13.40123	39.29787	57.93046	31.99389	12.05221	10.11998	9.56840	35.91254	26.66677	32.81742
9670	5.77568	7.25605	4.21152	27.07044	34.74887	21.43998	7.19488	5.93188	7.47066	22.98041	34.73253	20.47017	4.43229	3.81282	3.38538	31.82158	27.25179	24.41018
9840	4.96994	4.18083	4.80547	11.76938	8.83916	11.75348	10.36814	7.53683	6.68985	7.61486	6.02038	7.82929	5.31539	3.71588	4.51213	7.10658	5.83469	11.20908	26.17	6.0	0.00	7.42	0.01273	0.01290	0.01661	0.00775	0.00576	0.00632	0.00468	0.01267	0.01686	0.00672	0.00684	0.00882	0.01491	0.01096	0.01198	0.00217	0.00614	0.00863
10000	4.74833	4.60557	4.01429	18.17605	19.27142	14.72434	8.46208	7.56498	4.53709	16.71251	13.94507	9.86519	4.68348	5.84527	2.82599	12.99101	11.57075	14.25776
10170	4.90375	4.91920	4.58409	10.76015	9.99314	10.21831	9.20370	7.33319	6.02873	8.94155	8.13003	19.00762	6.60111	10.31218	9.41921	21.41285	48.66009	35.34755
10330	12.97909	9.00951	9.87590	28.96255	27.63064	31.11362	14.74035	10.41621	8.11925	34.05409	26.80508	24.01209	8.85989	4.80372	6.76480	19.04817	44.56880	40.15326
10490	4.80269	8.17736	7.88505	19.88921	14.60416	24.03294	10.73817	5.76808	5.85917	34.81456	23.97516	19.09452	7.61627	10.75865	5.62653	31.93366	31.16257	21.89651
10660	5.66636	9.45089	7.62006	17.52886	26.28492	33.33757	15.00034	10.97837	12.31141	43.19061	26.97736	19.21466	8.65753	6.98534	8.27267	40.72282	38.81840	45.01303
10820	6.98676	6.53963	5.49904	31.50592	32.15241	14.81102	9.55547	8.55447	6.28713	34.71739	37.29536	36.66637	4.72769	8.49224	5.31382	16.34393	19.91479	14.82460
10980	3.48361	4.25737	2.76934	13.00835	6.76149	11.32485	8.88782	9.50608	6.07369	13.62977	9.22231	8.85467	3.98925	4.04691	4.41385	13.24667	8.22696	4.88214
11150	5.31829	3.45565	5.74081	5.93900	11.22140	19.94276	9.80336	6.24291	6.66848	18.28565	11.62571	19.67039	9.37236	7.51538	7.30027	38.66215	30.79856	25.61990
11310	6.63093	7.04412	4.72928	17.19200	23.16263	27.39498	9.99013	7.42647	8.59756	42.58168	50.71844	39.92757	9.00204	5.31228	6.14978	34.04136	41.97732	33.33118
11470	7.39963	8.60413	7.34694	25.34328	23.98521	20.53738	12.83849	9.52456	6.87685	13.85947	14.38523	16.05897	8.93199	7.68486	8.91771	13.25097	12.07214	21.31379	26.17	6.2	0.00	7.35	0.01273	0.01290	0.01661	0.00774	0.00576	0.00632	0.00468	0.01267	0.01686	0.00672	0.00684	0.00882	0.01491	0.01096	0.01197	0.00217	0.00614	0.00862
11640	5.49874	6.93896	4.82545	20.25850	25.95514	36.31865	12.26490	6.71665	9.29909	28.96349	15.58576	20.82477	8.85373	9.93884	7.85453	17.90576	19.13704	24.70159
11800	4.32466	5.35968	5.68053	18.96781	10.70144	18.22164	7.00633	6.21640	9.22872	22.75704	20.71215	12.55378	6.10735	7.54257	4.97654	24.58237	34.31866	26.63717
11960	7.26219	5.66683	2.81279	30.53186	36.16021	19.31673	11.83143	8.82670	8.22648	37.36942	23.53647	43.96857	11.36048	11.70543	7.27124	42.97301	45.01433	50.04159
12130	8.45734	10.57300	12.63020	30.40357	44.23459	26.21502	16.34321	13.23728	11.78951	31.28263	35.75593	22.54589	10.61487	8.13718	7.72160	28.25036	34.10220	44.76319
12290	9.32648	7.55745	7.42503	24.62403	29.90827	36.18164	9.57796	6.48600	6.87335	19.04410	10.53624	17.66570	6.94590	7.88876	7.09820	15.57735	11.08406	16.67417
12460	6.01290	5.62721	6.51149	19.95232	11.69824	13.84854	11.10621	9.21971	7.06469	17.80418	13.12463	11.46026	3.79210	4.76501	7.76271	12.44636	12.58813	26.74523
12620	5.01155	3.23145	5.34572	11.49359	8.67743	6.55810	9.01406	5.62505	4.45789	11.56104	13.25538	15.06494	4.57658	4.29447	3.19468	22.12354	12.60395	27.74156
12790	5.88338	6.63137	7.11819	13.16081	10.73056	25.17234	12.13822	11.10150	6.22382	26.04156	27.25808	19.62914	8.36759	7.77337	7.90353	21.61611	25.66592	21.13175
12950	6.37420	7.62809	7.20123	9.22886	7.74374	7.02953	6.78513	5.15145	2.70535	7.56948	4.18965	8.97313	3.99895	3.28477	3.19685	11.09018	18.61384	11.32972
13110	5.98184	6.37735	6.37596	13.89289	13.16976	13.76548	11.30206	8.09354	8.17449	18.22041	10.76724	11.44226	7.29632	3.38772	4.24982	18.24832	22.52835	13.48213	26.17	6.1	0.00	7.42	0.01273	0.01290	0.01661	0.00774	0.00576	0.00632	0.00468	0.01266	0.01686	0.00672	0.00684	0.00882	0.01490	0.01096	0.01197	0.00217	0.00614	0.00862
13280	5.21647	4.16584	4.46360	31.07245	41.01220	23.58155	12.85039	11.12824	7.34366	36.21862	27.85360	31.46986	5.67430	4.74194	5.86267	27.11316	14.75362	12.29934
13440	5.78342	6.88733	7.38980	22.84467	19.09686	12.93474	14.30993	10.32496	8.90557	17.48992	10.76796	12.30326	5.38808	4.80983	5.14058	27.30676	14.06983	15.26625
13600	3.15506	3.76967	1.24603	8.57914	8.39659	11.40535	9.32319	7.84543	6.69707	10.63732	12.19949	15.92957	5.66209	4.62860	5.90923	17.53740	10.69051	15.20080
13770	6.53606	8.00843	6.75669	11.92736	21.13718	18.14920	7.99900	8.31302	6.80140	18.49321	15.27074	25.98729	8.26882	10.83930	5.15225	21.10356	23.30232	15.63213
13930	10.82871	8.90873	10.83613	25.59519	39.39960	38.32389	14.52062	10.83487	11.13649	45.72546	24.73108	36.68008	13.78751	11.59213	6.14284	36.54841	69.31706	31.03095
14100	6.98204	5.93270	8.00649	43.77516	34.28209	14.41167	14.31530	12.79509	10.13655	13.55795	19.34831	47.26152	9.14008	6.49933	3.96245	35.31937	32.29909	27.77038
14260	6.47938	6.74959	7.50185	23.14034	16.12450	30.78130	9.91081	5.52143	7.14067	12.55583	11.67718	10.52104	6.95103	6.32369	3.17073	8.10459	12.61484	17.72220
14420	4.16176	5.74825	5.63818	19.16725	20.92741	20.24148	12.62660	10.40655	7.81241	24.28739	24.92255	18.01886	6.34467	5.21384	7.21246	23.59807	31.19680	33.19345
14590	7.75683	5.60547	3.14799	35.90799	33.83291	36.37976	9.64849	9.62290	9.77202	18.14149	28.72599	16.76438	8.20804	7.49943	8.02341	19.89401	15.97728	17.61315
14750	6.31998	6.24865	5.17996	20.73388	13.69821	11.82365	11.34823	9.75475	11.46621	24.06715	29.62016	29.80951	11.36096	11.03181	11.64686	29.60827	20.76063	56.98700	26.17	6.0	0.00	7.34	0.01273	0.01290	0.01661	0.00774	0.00576	0.00632	0.00468	0.01266	0.01686	0.00671	0.00683	0.00881	0.01490	0.01096	0.01197	0.00216	0.00614	0.00862
14910	10.73953	6.98280	9.20822	34.03075	37.41316	39.85792	12.24596	10.32857	6.58584	23.06354	30.91282	24.78363	4.89868	4.76701	5.39138	23.84841	38.11893	14.11520
15080	5.56958	5.97080	4.93972	18.66491	13.96214	10.20906	8.17093	4.99106	5.09830	28.82263	12.09567	26.84121	3.75295	5.27583	8.27300	19.49814	14.00863	29.95042
15240	6.28517	4.78586	5.79332	36.40666	36.04849	48.41090	9.61259	7.45169	4.06943	32.50095	31.49903	38.46472	6.67513	5.89892	6.59306	30.21293	28.18259	13.37391
15410	3.83004	3.76263	4.68028	11.34403	15.32640	15.75195	10.44693	8.84389	4.57636	11.72901	6.65821	9.99624	6.19298	4.89218	4.69046	23.87253	10.16948	5.41179
15570	3.40147	4.33230	2.72130	11.72670	13.71335	27.16614	8.89766	6.98790	5.93946	11.78023	19.84814	23.51012	7.15853	7.15018	7.78751	32.35929	41.81601	25.72420
15730	9.44467	7.16078	10.27988	23.81086	26.15883	23.37679	12.76473	7.11642	7.55666	36.59504	25.05738	26.21164	9.73827	8.07293	7.08091	23.32553	20.36516	26.05969
15900	8.41472	7.46806	7.41656	17.12430	20.17690	24.58746	8.74128	7.66869	6.32525	31.88381	18.06481	17.29793	8.41119	6.01952	6.44984	28.82568	21.14294	25.94580
16060	8.73639	8.77533	6.96253	8.34374	32.54245	35.41262	11.54475	11.00095	9.38855	31.87380	25.09410	18.22141	9.02019	7.98522	8.46577	17.44779	23.80471	25.81981
16230	6.00654	3.68917	4.17610	24.22535	10.59829	13.97423	9.45090	6.71193	6.01578	19.49494	22.34485	38.31664	8.36234	9.73577	9.05135	21.16064	32.37382	33.97652
16390	8.79533	7.59089	5.13831	29.61540	44.87984	35.09883	10.28809	9.55290	7.99951	42.70877	22.66948	26.28558	5.61893	6.61641	6.59819	18.95178	18.86116	11.79986	26.17	5.9	0.00	7.42	0.01273	0.01290	0.01661	0.00774	0.00576	0.00632	0.00468	0.01266	0.01686	0.00671	0.00683	0.00881	0.01490	0.01096	0.01197	0.00216	0.00614	0.00862
16560	3.94711	5.90597	6.59251	18.89715	32.06472	41.12435	7.24769	9.26729	7.39331	23.56715	27.60298	29.88210	6.09073	8.02905	8.44802	29.85173	42.73601	25.59163
16720	8.70443	8.56623	9.08324	21.76406	11.96529	26.02502	10.28175	8.79437	9.41216	31.69913	28.40714	31.28899	11.42427	12.94567	7.22411	29.94741	26.94755	24.70138
16880	6.31668	6.08077	6.84407	39.35293	16.87065	23.10180	16.35857	9.07715	8.80634	34.01988	17.19329	15.36993	6.55567	8.60236	6.58820	30.09953	19.20318	16.34391
17050	6.07270	5.03684	8.39146	27.61450	25.63802	41.69005	11.02069	10.38376	9.16648	55.88759	40.17663	20.68495	9.66245	10.97335	7.54153	53.21193	39.44894	25.99254
17210	6.41012	5.78713	7.21779	33.74141	37.38845	20.89553	12.04366	9.19030	9.60463	43.03946	32.28161	15.67731	9.54957	6.66211	5.81323	40.39618	36.92509	20.69269
17370	8.71737	8.12725	7.63750	25.30773	34.92374	29.90307	13.51564	10.95085	7.74621	22.44876	21.23217	24.59706	4.54002	5.55488	5.36263	21.10877	13.32545	15.57570
17540	2.76847	6.04268	4.15115	16.25505	13.19016	11.72790	7.97603	9.31293	6.20059	13.28962	5.08046	8.80123	7.60303	6.97362	7.46143	9.73997	8.94451	9.37411
17700	7.28402	4.85540	4.81939	14.60139	14.73748	12.45419	12.37939	11.54320	6.42626	7.81045	15.15192	6.52878	4.95310	6.66054	7.02600	17.41399	19.11558	27.87191
17870	6.99946	6.56829	5.71887	19.63489	13.93820	26.94082	10.81298	10.19442	6.32165	17.57393	18.11313	8.01619	5.62617	7.24654	5.58778	13.22273	12.53098	9.37376
18030	3.98608	2.08557	3.44970	15.52380	9.40574	20.59422	11.29376	7.80894	7.41280	23.47721	19.10720	34.40733	5.90786	7.34354	4.60398	22.40487	23.02399	42.62924	26.17	6.0	0.00	7.46	0.01273	0.01290	0.01660	0.00774	0.00576	0.00632	0.00468	0.01266	0.01686	0.00671	0.00683	0.00881	0.01490	0.01096	0.01197	0.00216	0.00614	0.00862
18190	8.33107	5.73942	6.30742	30.42925	25.19988	19.66975	10.47067	8.50503	5.71994	21.58885	22.59421	36.37274	7.43676	10.06997	6.81366	53.79415	47.33119	59.43417
18360	7.09409	4.55305	7.85648	30.80074	46.55618	94.63254	16.43002	14.57367	8.36569	58.35907	31.36477	68.35350	11.36962	9.82109	10.84769	17.65613	20.70714	31.29229
18520	6.61841	5.90872	4.25575	21.40562	41.01636	20.75535	12.51113	7.39857	4.93492	24.12957	19.61738	23.47747	6.40777	6.04011	6.08683	25.33472	22.29872	21.08861
18680	3.97450	4.63953	7.54120	56.71831	16.04102	21.94781	10.39377	10.76615	7.03126	22.66911	15.00418	9.14051	6.92370	5.38657	5.89449	29.86128	23.38222	14.69288
18850	4.27571	3.97597	4.72872	15.31068	18.67922	13.98947	8.25835	9.69706	10.29837	34.03811	22.63078	31.50625	12.14423	10.47923	10.26575	35.20622	31.95518	15.85483
19010	4.51449	4.02279	5.09720	16.54565	20.13585	16.45516	11.92407	11.13755	7.07572	22.43056	29.47877	35.36305	6.51678	3.32244	3.63925	23.71240	22.33265	28.08193
19170	6.55059	8.22716	6.66597	32.99330	18.72871	16.82625	10.70947	9.20588	10.55594	14.73993	12.85316	18.78622	6.33695	6.44898	7.39333	12.93836	14.34960	6.48076
19340	4.86012	4.43844	5.13978	7.53429	6.10158	6.90341	7.74194	7.73622	6.05474	11.62417	15.67703	19.61255	5.37469	6.71881	4.79543	23.43905	33.34658	27.36227
19500	5.85755	7.42123	8.70563	29.33688	32.71661	26.45543	13.66569	13.83947	9.80556	20.54436	29.11999	28.87416	7.55077	7.19879	7.89297	22.49968	24.28207	31.70076
19670	4.70703	2.57588	5.08271	24.08552	7.48628	8.46427	8.86629	9.04851	6.61774	16.80805	19.05041	20.54351	8.09134	7.40744	7.09412	22.70503	21.23439	18.09791	26.11	6.1	0.00	7.37	0.01273	0.01290	0.01660	0.00774	0.00576	0.00632	0.00468	0.01266	0.01686	0.00671	0.00684	0.00881	0.01490	0.01096	0.01197	0.00216	0.00614	0.00862
19830	5.42969	4.40061	5.32011	22.37935	20.98311	21.69075	10.78445	9.88412	11.65003	14.90369	10.08048	22.19692	5.63184	6.36646	9.57712	34.42324	31.76531	26.50283
19990	7.08555	5.59806	7.32302	33.23797	29.03012	29.30501	11.86383	12.50145	9.13554	24.99341	34.90934	35.81228	8.71158	6.12191	6.34779	20.28774	20.49897	20.59619
20160	5.69955	4.67787	4.86816	22.43867	28.61628	20.00145	8.82105	5.46780	4.46846	16.42713	4.14738	4.35864	4.08629	4.14864	4.28902	21.34929	11.80164	20.04004
20320	5.15405	7.19981	3.81650	13.10838	31.88253	15.83371	12.45491	10.48114	8.33103	20.93695	19.94600	14.58328	8.97571	4.12780	6.12180	18.28498	34.21155	19.01108
20490	3.30483	3.22075	4.51143	11.84909	13.07561	8.54302	10.30207	9.40421	8.61897	8.63549	4.84803	18.37675	9.03280	5.64984	4.79899	18.25202	23.97986	15.87176
20650	3.60658	3.38402	5.22365	18.03119	16.81631	15.28865	11.40149	6.91638	3.67460	19.45906	11.58096	17.84521	5.71106	6.81659	5.84664	31.79372	16.62420	19.02952
20810	5.68227	3.62631	3.12015	14.83261	14.30790	14.18966	7.86348	6.80192	7.06832	24.62208	29.21785	24.79370	5.17277	8.45920	5.97265	19.39253	17.26839	30.00439
20980	3.79652	3.91499	4.52947	17.21710	20.23074	20.69289	11.44624	8.81171	4.98836	11.99132	16.70138	19.74593	7.43835	5.00435	9.49741	18.97755	41.70302	49.38958
21140	7.20488	6.94753	7.02550	13.57729	19.48637	42.65025	13.07703	7.14278	9.96338	21.25684	20.53242	13.12451	7.31745	8.05075	7.78945	21.45706	24.35150	12.03563
21300	5.64219	5.18958	3.75395	14.55255	19.04349	15.19612	11.64822	9.11772	7.29827	21.46713	7.46527	16.35264	5.55690	6.12258	7.51193	13.10068	22.06483	13.58335	26.23	6.1	0.00	7.37	0.01273	0.01290	0.01660	0.00774	0.00576	0.00632	0.00468	0.01266	0.01686	0.00671	0.00683	0.00881	0.01490	0.01096	0.01197	0.00216	0.00614	0.00862
21470	4.80849	6.64557	4.96716	11.53678	18.86888	15.58633	8.25367	5.44095	3.72601	11.31206	11.01124	10.05846	5.81305	4.06289	7.35493	16.15846	14.76951	25.38014
21630	7.63652	6.42944	5.29740	28.27427	21.76756	19.46396	11.94932	7.56082	7.69889	21.87576	16.88847	28.73969	7.22956	3.60647	2.51872	32.18607	23.46458	24.30627
21800	3.00387	3.71109	3.57362	14.74656	7.30129	10.04860	11.31149	8.23427	5.41841	8.84534	13.68150	11.01645	7.45710	10.52145	8.36614	19.22053	32.74710	29.45721
21960	4.19382	6.80160	6.39543	21.87637	46.32003	48.82000	18.37260	16.09954	13.75041	30.02697	52.65765	47.83307	14.97504	15.29127	12.58560	61.31409	34.38149	30.67285
22120	6.58147	8.96919	7.24538	32.46555	31.72203	30.64119	12.80603	8.56850	7.39730	27.08058	30.93737	33.98890	7.88571	7.75773	6.76086	36.61464	43.51842	35.64605
22290	7.26525	5.55119	7.32519	27.08264	26.75431	31.53311	12.61314	10.09852	8.98238	29.86805	27.27601	57.19886	10.95999	8.73056	7.15896	57.82899	67.51868	62.85754
22450	6.71353	6.24617	7.74129	36.09024	35.79435	34.29138	13.87898	14.23785	9.05026	58.20223	48.08366	23.08772	8.15151	7.70921	8.65420	27.86068	28.07156	37.95168
22620	6.71996	9.30295	7.53916	53.84602	44.64810	19.54898	13.95373	13.75691	13.19952	7.48792	12.48305	16.25729	9.23458	7.86998	7.75612	22.89541	18.74677	15.54803
22780	3.57960	6.89961	9.43553	41.35120	31.22887	24.99000	14.63354	11.51623	11.16663	44.94735	29.30690	25.21144	11.28380	13.67718	10.76883	37.42043	29.69788	22.94260
22950	9.89017	9.63604	8.17290	18.28132	9.19044	15.79968	8.88146	7.27745	6.31141	6.91027	11.44035	8.10801	4.76809	5.36871	3.95784	24.65311	17.58674	10.19350	26.11	6.1	0.00	7.39	0.01273	0.01290	0.01660	0.00774	0.00576	0.00632	0.00468	0.01266	0.01686	0.00671	0.00683	0.00881	0.01490	0.01096	0.01197	0.00217	0.00614	0.00862
23110	3.45695	4.82818	2.88649	19.95985	12.06944	12.89602	7.08423	7.19625	6.36552	26.58774	13.38467	15.56809	4.80941	6.10180	5.28940	18.21340	12.65633	12.42320
23270	4.25178	5.88212	7.54788	18.53515	14.30429	14.70983	12.14486	8.87911	7.33089	22.90938	14.77099	24.86431	6.36873	5.95963	7.22114	26.21911	20.44789	34.98262
23440	7.37537	9.62777	8.92242	33.37392	57.79409	48.81826	13.44251	12.73853	10.96227	28.85975	41.88745	19.37319	9.83253	10.55369	8.47054	38.35512	23.26142	22.52572
23600	6.48891	9.69824	8.40529	31.91120	48.33619	29.17007	13.71700	9.57638	7.79522	44.39465	36.65343	41.09084	10.10391	8.84165	8.61653	45.70772	35.36713	21.81667
23770	6.71294	6.66074	7.97953	22.79864	18.34108	22.16997	10.13017	9.56194	6.90494	23.89563	18.64039	18.43507	3.05802	4.85804	4.06036	18.02480	14.30192	11.61880
23930	7.55152	4.92671	4.60075	8.93298	11.49988	14.75972	11.90592	7.72273	6.10071	11.52973	15.62158	10.23646	4.57737	3.96899	8.52199	8.86112	21.95028	30.29079
24090	4.46094	5.53987	4.69635	15.06030	20.86513	20.06548	13.75185	9.54594	8.03288	15.22933	16.58488	15.24189	7.10896	7.40594	6.36802	16.55073	17.19454	26.51685
24260	3.74353	4.18655	2.24138	13.51656	13.51461	22.39972	12.79175	11.46510	6.35564	20.27661	22.61080	19.78455	9.12766	8.24917	6.37220	39.74552	36.07177	15.25408
24420	5.63559	6.59204	7.20588	28.09103	29.44176	23.66450	12.35601	7.85815	5.41868	19.49199	31.01944	18.58586	7.39212	6.84466	7.36726	32.34625	28.20642	67.22524
24580	8.67023	7.86947	8.52659	82.96494	68.76954	72.46801	16.20609	9.99090	9.36528	30.00379	44.84608	56.87783	6.33180	7.97690	8.62486	32.68697	25.77919	21.31434	26.17	6.0	0.00	7.37	0.01273	0.01290	0.01660	0.00774	0.00576	0.00632	0.00468	0.01266	0.01686	0.00671	0.00683	0.00881	0.01490	0.01096	0.01197	0.00216	0.00614	0.00862
24750	5.52049	6.32951	5.76413	23.52125	29.86732	25.09005	8.23251	7.62266	3.46484	10.91652	12.96381	10.88379	5.31194	7.56416	6.33509	17.59681	28.54123	45.92720
24910	9.23134	10.08076	9.01702	23.01071	42.81583	29.82084	15.13953	10.37408	8.98405	29.94192	24.86124	15.16403	12.37735	9.80577	8.41104	37.54575	33.93472	24.68938
25070	6.09871	8.12584	8.42983	22.63321	31.11730	24.09452	8.59807	9.70877	10.54557	30.60152	32.61735	15.76359	9.16079	10.17248	8.49789	24.29847	30.55441	26.47830
25240	6.91186	4.61007	6.36575	29.36465	25.84247	21.52497	11.22574	12.44468	8.74848	28.39161	29.00485	20.13513	9.01773	7.18755	6.51623	39.14848	33.10954	33.48877
25400	7.56805	6.94843	5.64850	20.82424	18.71994	18.06362	11.92950	9.13022	4.71547	34.10191	17.40114	26.89015	7.67762	4.55629	4.83265	25.28507	20.63564	16.20247
25560	2.11124	3.31840	2.88732	21.31439	19.67372	17.19355	7.57065	6.77844	4.00404	17.68302	22.86866	20.95232	4.32638	5.84176	6.34983	40.61829	21.25943	13.47573
25730	5.10166	6.49052	5.02597	10.20296	27.42362	20.38610	12.03096	9.00495	6.00003	12.64656	15.23648	20.83756	6.44948	5.65691	6.59709	16.97076	17.55435	19.19812
25890	5.90953	4.67130	6.87878	15.63934	8.29305	15.93081	8.46553	7.70985	6.58251	26.97358	17.16583	25.57434	8.97452	11.05363	7.80857	29.41826	25.66940	27.91640
26060	5.87799	7.74355	10.43286	17.97661	11.80202	17.93119	12.99948	8.52363	8.12142	25.60344	13.46162	24.43252	5.46493	3.10005	2.69590	25.21977	18.29683	19.27502
26220	6.71285	7.30097	6.93991	11.18684	16.34204	15.87319	8.88249	9.98056	7.31195	17.75956	27.33337	20.45335	5.01542	5.76521	5.02632	19.08913	23.29276	13.42226	26.17	6.2	0.00	7.37	0.01273	0.01290	0.01660	0.00774	0.00576	0.00632	0.00468	0.01266	0.01686	0.00671	0.00683	0.00881	0.01490	0.01096	0.01197	0.00216	0.00614	0.00862
26390	4.22192	4.27607	5.10558	12.28387	11.59211	14.47372	8.59416	8.91318	6.49743	14.58372	21.01551	10.14596	8.77260	5.94049	4.19456	16.90724	13.24255	13.65351
26550	4.74093	5.92453	5.92957	12.84711	9.92157	13.92469	11.69440	7.56629	7.17848	14.34050	15.13126	8.49236	8.29617	7.31562	5.60414	22.49652	25.33819	17.55348
26710	6.68854	7.54399	7.47188	19.98692	26.54973	20.11258	12.72397	6.16174	3.93408	14.95763	38.79053	38.15935	8.95164	7.48577	6.48369	33.35962	32.01504	26.18627
26880	6.72315	6.47097	6.47085	12.08545	15.22976	27.85672	10.17081	6.67802	5.87332	29.94695	26.52001	13.04411	8.53047	6.00235	4.41809	16.89725	20.05207	26.97687
27040	5.87801	5.51077	7.57012	11.87867	25.23167	24.28747	14.22064	9.32295	5.06576	21.13925	24.00163	28.89752	4.59450	9.36885	8.23358	26.11390	31.34222	43.49877
27210	9.98804	8.72122	7.53249	44.68350	35.57179	33.58186	12.63731	10.60837	8.17737	36.68175	25.37042	17.65403	10.63615	8.23657	4.68096	30.10269	12.88515	28.67637
27370	4.56918	5.12205	4.67358	20.96633	24.68137	20.80086	13.40279	9.24639	9.60270	14.67653	23.68883	26.59375	9.74699	10.54035	8.25824	17.24813	15.52685	17.29359
27540	7.56888	6.53231	5.49962	13.55905	10.73538	11.81490	9.46633	4.67448	4.83146	18.80698	13.36518	22.41158	6.68069	6.08061	6.85885	12.47208	23.69593	13.74640
27700	6.98129	4.12345	7.68084	17.67963	17.02310	13.42835	14.15398	7.60951	8.20201	20.51013	26.44449	38.80291	10.17486	8.09688	4.96066	34.39093	54.40233	37.07416
27870	6.38074	9.97687	9.02826	60.75362	50.03622	36.61221	14.84624	15.20567	14.30898	43.65245	58.86096	89.04935	10.94444	12.34472	7.43482	49.40629	37.02173	37.90181	26.17	6.2	0.00	7.38	0.01273	0.01290	0.01660	0.00774	0.00576	0.00632	0.00468	0.01266	0.01686	0.00671	0.00683	0.00881	0.01490	0.01096	0.01197	0.00216	0.00614	0.00862
28030	11.30379	5.33952	5.31760	42.53006	29.24656	18.80305	11.19123	8.70694	5.46607	36.80579	19.77125	19.65338	6.09248	6.73287	5.43997	28.84012	29.97447	22.13333
28200	8.43530	5.26262	5.44278	23.99006	26.24328	14.44292	14.63011	12.36950	5.71295	18.07240	17.33024	36.62504	6.86850	3.46177	5.13531	28.75767	33.33678	12.00048
28360	4.54353	4.23775	5.88752	17.17425	20.21016	18.36462	10.43466	7.72298	6.51736	25.74902	12.37514	16.55159	4.28935	5.53438	4.69017	23.94190	27.49446	34.58545
28520	5.36144	3.25518	3.58571	51.82693	21.40322	26.88889	12.00968	8.05822	8.71186	21.25543	44.41259	32.36627	6.37249	7.78545	3.66552	17.16190	28.06624	20.54948
28690	4.62926	5.34164	6.66420	24.68596	24.26725	26.10679	11.99758	8.72798	6.70618	23.17890	24.28787	17.64056	7.70439	5.25452	5.79166	10.74419	15.51960	12.89024
28850	6.26691	6.23130	6.14365	21.01190	32.05572	29.58415	10.23776	12.61103	8.46961	16.41709	22.58853	22.78911	9.53651	5.96392	5.91902	35.24137	25.47164	31.75866
29020	3.77838	2.63855	3.44267	19.81685	13.09204	11.72853	7.12036	6.11161	4.53910	9.64707	8.20244	7.11574	4.47268	6.18634	7.01827	13.31391	15.52626	13.27930
29180	4.07268	6.57582	7.42865	9.25624	12.41225	15.67512	13.44222	9.47390	7.08769	7.85905	4.80821	4.95463	3.45036	4.89849	4.72811	10.76007	12.22769	7.65488
29350	3.56837	5.09478	6.83508	7.34360	9.87130	12.52169	11.82725	8.99416	6.48614	15.92967	8.75775	13.63916	6.16985	7.38219	7.77853	23.91184	25.28674	17.57009
29510	3.96688	3.47350	4.49167	25.38259	13.39899	16.70261	11.83381	9.68256	7.89224	11.27721	14.20120	9.38700	5.81849	5.23459	4.05408	21.44605	21.87751	13.83814	26.23	6.2	0.00	7.45	0.01273	0.01290	0.01660	0.00774	0.00576	0.00632	0.00468	0.01266	0.01686	0.00671	0.00683	0.00881	0.01490	0.01096	0.01197	0.00216	0.00614	0.00862
29670	8.35534	8.11046	8.17718	18.70421	20.75773	17.81123	14.27350	10.22065	10.35761	32.01641	35.70229	31.84333	5.99727	4.56923	7.55339	18.31536	17.77756	22.51808
29840	8.28294	5.34792	4.33777	9.92856	12.14792	14.60896	10.38667	12.55152	5.80318	7.74473	7.74577	15.88361	9.33122	8.42429	6.53249	12.83007	11.01095	12.03754
30000	6.83984	7.97245	5.81919	12.95449	10.63162	5.67972	11.83643	9.08576	6.93823	10.17944	11.05466	18.47102	7.02290	4.86005	4.91873	18.50755	14.10784	38.49635
30160	4.88189	5.73456	4.53080	24.59855	28.06178	33.95996	12.90376	11.91964	6.28496	31.55783	19.22580	29.02477	7.12141	6.17514	6.34988	30.97857	27.58760	25.45993
30330	6.16484	5.23896	4.89712	19.24369	15.76018	18.78052	9.47746	6.62566	4.74669	18.43496	14.62340	5.52259	4.77328	4.81839	9.41782	8.68947	5.29300	15.75505
30490	2.43445	6.21433	2.58025	6.21936	11.45664	13.26652	13.35811	8.00488	10.15117	21.90768	9.16807	11.83711	8.79166	8.18957	6.24271	17.55450	20.56629	39.78313
30650	5.46842	5.06635	3.93469	31.95585	31.24192	39.82617	9.65828	6.53278	6.30701	28.57603	39.76462	24.43386	9.31042	7.98729	6.60483	29.57957	23.30917	29.72552
30820	4.71099	6.41183	6.87157	20.51421	31.73957	26.07592	10.12409	6.92873	5.86061	38.37680	29.60072	27.93303	5.62423	7.37067	5.93555	41.30649	29.16106	21.94593
30980	6.49963	5.28734	4.97461	44.31756	30.43730	26.21926	9.70294	8.59690	6.13861	28.23177	17.85750	22.54953	8.10452	9.29379	7.52089	17.71542	17.22331	13.90896
31150	7.60622	7.92166	9.17907	13.34530	16.26615	9.15196	12.68928	6.12024	6.77158	11.42534	8.35513	8.79747	5.58406	6.22081	3.96858	9.04868	15.64633	9.46117	26.23	6.1	0.00	7.43	0.01273	0.01290	0.01660	0.00774	0.00576	0.00632	0.00468	0.01266	0.01686	0.00671	0.00683	0.00881	0.01490	0.01096	0.01197	0.00216	0.00614	0.00862
31310	2.71811	4.01736	3.61340	13.89122	20.65742	22.60873	9.14480	7.63595	6.49279	16.07245	10.34574	7.50624	6.41207	5.53147	3.01334	16.85438	9.16644	8.99907
31470	5.68671	5.03415	4.82272	12.47783	10.41843	10.46984	12.90364	10.67256	8.05334	10.96797	10.98624	20.67226	7.43933	7.86100	8.10074	17.54402	22.19479	19.07972
31640	6.80870	4.53350	3.33729	20.16923	16.25193	19.53442	10.17811	7.34434	9.37851	12.64930	17.65861	14.39234	4.31537	5.91783	4.46635	16.30530	15.85964	13.11234
31800	6.13255	6.12912	4.49503	20.70919	9.71292	7.46497	10.42652	7.78585	7.72293	15.26003	21.01639	15.74268	9.25478	8.54711	8.58259	21.19750	21.56096	17.76423
31960	6.85421	6.86395	5.18039	27.09822	25.32442	19.64931	11.60191	8.06250	5.96705	15.27630	22.40950	19.26105	8.34238	7.38621	6.05285	18.57699	21.69252	11.25761
32130	5.61745	4.98678	4.94025	15.00772	10.43003	5.55385	11.29745	7.53529	4.12497	13.09614	19.66271	19.33043	5.55514	5.89993	7.59270	15.30258	18.54588	9.07462
32290	4.72737	5.78394	6.74023	18.89656	15.54369	16.11799	12.30780	7.14991	6.26607	12.51928	18.27639	17.49889	7.13724	10.51742	7.92886	21.54171	25.43307	26.24168
32450	8.27945	6.93431	4.99380	37.03375	23.79470	17.23575	10.40288	6.27177	5.03406	23.00209	19.32615	20.11027	5.23917	3.46835	4.58501	23.00492	21.84010	38.13240
32620	8.61709	7.19640	4.80667	17.01598	11.59073	21.74360	12.15352	9.69867	4.89138	13.99408	21.24951	17.14188	5.77962	4.81984	5.06674	16.36333	12.15483	17.03511
32780	4.50408	3.41186	4.72037	18.93733	14.23918	17.21529	10.20574	9.76836	7.28380	7.95054	14.26135	18.72112	6.63040	7.65836	8.67486	10.59439	11.26759	10.77378	26.23	6.0	0.00	7.45	0.01273	0.01290	0.01660	0.00774	0.00576	0.00632	0.00468	0.01266	0.01686	0.00671	0.00683	0.00881	0.01490	0.01096	0.01197	0.00216	0.00614	0.00862
32950	4.25715	6.18095	4.40706	20.33859	12.52970	19.83412	8.74334	6.81681	4.60762	25.22272	22.02564	22.10123	10.95778	6.00450	5.29961	18.86993	27.71182	24.97275
33110	5.88566	6.64446	7.45556	24.24728	32.48485	24.86123	8.22512	7.68217	3.77969	15.87272	15.54147	15.74367	5.24309	7.11880	5.33885	22.69634	20.24625	11.49628
33280	6.10966	4.75747	4.44376	14.88667	8.76517	12.09359	11.18781	7.34689	6.33440	15.37950	17.79291	16.65613	6.30698	5.46422	4.89074	15.95085	18.01066	13.68673
33440	5.06628	4.84055	5.44828	15.45225	14.32451	12.30825	7.85723	7.29281	8.97513	21.10821	25.81136	37.09543	6.24110	6.33172	5.73084	26.28794	26.64612	22.51360
33610	5.60394	8.44306	8.16231	34.47906	21.39971	37.92621	17.39695	14.55770	9.11585	31.47564	24.38329	29.24905	9.95168	9.13092	10.18498	31.56537	23.70673	39.72741
33770	9.21194	6.92319	7.04323	24.94116	45.10224	28.97966	11.30135	9.41029	5.54595	32.00410	29.46145	22.74166	5.72577	4.33275	8.13936	29.39779	18.25534	20.59952
33930	5.21333	4.95486	4.12841	24.02079	17.35268	23.23095	10.58995	6.11741	5.18574	18.76947	12.95860	10.08127	7.94447	6.66631	6.14144	23.19968	10.66102	7.99405
34100	5.01496	5.20853	3.82274	8.49442	11.69403	14.02448	11.53391	5.54853	5.01003	12.19931	16.52798	15.36879	5.58326	4.55353	6.43163	31.72218	17.14082	28.71335
34260	4.53645	6.62241	7.26008	19.86227	12.93518	10.49430	9.43086	4.93995	7.90817	12.03491	17.20180	12.88472	8.94760	7.25298	7.20473	15.88577	10.80299	23.02371
34420	6.89211	6.84702	7.50285	15.62065	21.59397	10.09866	11.74221	10.60519	8.20793	16.72474	12.23263	15.33807	8.25262	7.68015	6.09526	29.83602	22.96725	24.21606	26.23	6.1	0.00	7.40	0.01273	0.01290	0.01660	0.00774	0.00576	0.00632	0.00468	0.01266	0.01686	0.00671	0.00683	0.00881	0.01490	0.01096	0.01197	0.00217	0.00614	0.00862
34590	8.89675	7.11799	8.67440	16.07299	19.41571	28.21001	15.05798	9.37777	5.75302	15.21634	18.06202	7.11884	6.98136	5.45261	5.18640	14.45845	16.66701	6.30826
34750	4.38763	3.81418	4.13355	8.86586	5.52329	7.19405	7.65446	7.88958	9.10819	7.05719	12.28978	6.66071	8.55089	6.30016	7.04082	22.84826	11.66221	13.47027
34920	6.13801	4.24610	3.68672	32.17376	28.48986	15.89182	10.83456	8.96347	6.11516	21.48094	18.50363	35.72181	5.37605	6.33803	6.94168	20.56336	20.49624	21.34697
35080	7.25444	7.79158	8.04384	53.59821	58.78940	41.00232	10.90376	9.11260	7.81113	28.17096	39.65366	31.49264	5.87433	9.86164	7.73153	27.29354	25.19888	26.96593
35240	5.20496	6.22595	5.40528	25.11299	25.61414	44.00124	11.28876	7.68455	7.19663	29.27170	14.74597	13.64321	5.63215	5.71856	8.74348	16.74035	28.26669	23.76960
35410	6.20974	6.69085	5.03444	17.31726	24.57149	11.59679	12.64851	9.87271	8.79184	19.67295	13.90301	11.55315	4.84939	8.31095	6.58688	20.83498	21.29056	18.56639
35570	6.18585	4.45940	4.12329	16.88608	16.89657	15.24951	8.16902	9.74534	7.38585	11.05246	7.51131	16.78779	6.21516	5.34862	6.01015	24.40449	14.07803	34.45201
35740	3.70402	5.51481	7.26571	21.02159	57.84111	26.25903	14.14657	7.57510	12.13149	28.26138	35.61691	27.52594	9.88885	10.99266	10.79110	35.33426	22.28824	20.84258
35900	5.79463	5.01304	4.41449	32.91169	17.38525	12.47716	12.98926	7.25888	8.06519	17.91075	14.80767	27.28911	5.88405	7.29351	6.60127	14.99738	12.80330	10.28170
36070	4.47223	4.89932	4.25472	15.90849	6.45446	10.39112	11.53682	13.33089	9.41849	12.84531	14.78670	23.23083	6.76606	4.46447	5.90380	30.57511	17.82099	30.28399	26.17	6.1	0.00	7.37	0.01273	0.01290	0.01660	0.00774	0.00576	0.00632	0.00468	0.01266	0.01686	0.00671	0.00683	0.00881	0.01490	0.01096	0.01197	0.00217	0.00614	0.00862
36230	4.10257	6.54312	3.94681	26.89805	23.52076	18.82704	9.84048	10.26924	7.56295	24.04291	18.28399	15.66051	4.05731	3.92053	2.99723	26.26285	13.72783	23.02042
36400	3.32461	2.76408	2.57977	21.85127	13.09862	6.93221	8.69688	7.80186	6.70069	24.79024	17.34569	12.00762	6.49700	4.53668	5.85938	20.50275	18.67829	16.92063
36560	5.53967	5.18508	3.06236	13.47820	11.42463	7.18018	7.39050	5.54583	3.64109	8.90605	11.61731	11.20145	3.48817	3.38525	5.60492	14.54749	19.30762	17.02967
36730	7.56400	6.25862	3.75539	9.87306	11.80985	12.33884	10.87424	7.88765	6.09727	12.06466	14.25050	10.35758	7.29119	5.08135	6.20187	13.48129	17.17649	12.52100
36890	3.84729	6.67391	4.30610	26.20055	21.77420	12.01110	11.13781	8.99839	9.01659	26.64268	25.28788	23.81477	8.82773	8.93693	8.85531	31.71125	27.49035	17.28963
37050	3.90352	4.64018	5.28661	33.06893	29.64895	17.02714	11.11473	12.23207	9.63230	10.14944	15.74649	21.50961	5.77436	3.88801	6.54249	18.21417	13.80183	19.08029
37220	3.78695	3.27809	2.09908	9.35373	10.72068	16.12045	9.76143	8.03049	6.12451	23.44306	12.10699	12.49695	7.33642	6.15924	9.48614	43.78568	30.04166	24.49857
37380	5.19390	8.18122	7.02188	46.75516	39.32110	28.22081	13.75466	10.61647	6.09716	24.33392	29.19280	24.30195	6.65900	2.80548	5.00714	30.76890	20.30594	32.94738
37540	3.25625	4.18109	6.07739	30.77882	20.30746	42.97284	10.61644	9.93995	8.36581	27.33368	36.84658	23.02630	8.80389	8.96463	6.73367	32.99830	19.95288	16.20311
37710	6.64888	4.35051	5.36735	22.60326	25.96412	21.81426	13.19834	7.45319	7.43201	12.67082	20.25321	16.91144	5.69679	8.84137	6.65315	22.72737	10.55833	9.17902	26.23	6.2	0.00	6.97	0.01273	0.01290	0.01660	0.00774	0.00576	0.00632	0.00468	0.01266	0.01686	0.00672	0.00683	0.00881	0.01490	0.01096	0.01197	0.00216	0.00614	0.00862
37870	6.68957	7.04891	8.24476	13.76072	17.50073	10.05523	14.04472	11.56660	8.42498	20.41237	29.55577	17.79924	5.19505	6.14297	2.32568	28.02223	22.76946	12.46594
38040	4.45507	5.96436	5.80873	13.11131	11.83021	13.08750	11.53467	6.88553	5.63124	10.44019	11.56878	16.39301	6.77294	3.64409	4.55128	15.17171	17.45991	16.22578
38200	2.77385	4.26557	2.69020	6.64480	15.77707	14.66784	8.93426	5.72018	4.63788	15.93086	10.35110	12.84109	9.18350	7.93054	6.55270	10.59077	14.50133	18.97647
38360	7.69731	5.13097	4.25607	11.36087	19.44599	18.01745	11.85324	6.72027	6.47410	12.87998	10.79430	10.41300	4.32625	5.16340	5.13292	20.71356	20.58810	15.03885
38530	6.79621	4.69308	7.38931	14.15382	21.70878	10.47187	15.52722	12.38473	11.68204	27.81433	16.32274	12.27019	7.19506	10.78059	5.29355	30.77724	15.13669	24.22939
38690	5.98638	4.82158	3.68477	43.57539	35.25475	27.15386	12.20129	7.57567	6.17557	25.40709	21.91815	16.45174	5.18253	6.85470	6.96463	20.61169	13.07307	8.74519
38860	5.84726	4.16350	3.28990	11.41685	6.55180	8.98482	14.23504	7.27520	4.94894	7.58632	15.61534	13.79585	6.56475	6.37757	8.15410	12.81700	8.54371	3.92222
39020	5.67123	6.25802	5.01196	6.92225	6.96085	7.00065	9.12626	6.61330	4.26536	5.41748	4.91811	6.10610	4.37766	3.65302	4.26365	14.40374	15.80395	17.13505
39190	4.00962	2.86269	2.96682	28.60705	27.82453	25.69971	11.62927	7.99966	10.61504	20.31060	27.02452	27.67110	6.09831	13.20052	11.26213	18.07601	32.96220	28.33523
39350	5.25745	6.35152	8.61689	32.08505	15.53457	15.85132	10.20262	8.42153	4.58743	19.78203	14.33930	29.24092	3.96798	5.71460	3.97622	30.69022	21.05103	35.66931	26.23	6.1	0.00	7.41	0.01273	0.01290	0.01660	0.00774	0.00576	0.00632	0.00468	0.01266	0.01686	0.00671	0.00683	0.00881	0.01490	0.01096	0.01197	0.00216	0.00614	0.00862
39520	5.34708	5.26387	6.13234	22.08458	20.12550	14.72156	13.82401	8.07089	6.24004	13.23988	17.68067	23.33131	4.41284	4.36723	6.25175	14.62698	7.09720	10.55356
39680	2.99012	5.37218	3.63483	9.42866	13.20697	12.53655	10.28949	10.79266	6.68000	9.17658	24.69377	16.06401	10.73374	7.92318	6.12063	23.86988	16.90997	19.15413
39850	6.41163	3.85866	4.03755	23.16004	19.13867	27.12250	10.98793	9.81723	8.76921	23.22199	32.42935	22.70717	8.56431	7.72881	9.30729	23.76401	31.33117	39.52193
40010	7.85110	7.34947	6.94434	29.64627	24.34716	17.73545	10.06017	6.27799	7.76627	25.62705	24.72561	20.18805	10.48855	8.99770	6.85786	25.80449	16.35288	20.17889
40170	7.40923	5.98202	4.91432	18.09067	26.14738	19.94420	7.87000	5.45569	5.92893	11.96802	26.28884	8.71381	5.11885	5.68304	7.57725	13.11092	20.53502	17.01730
40340	7.75157	5.96635	4.71252	14.57639	13.72172	18.36986	15.74126	10.22920	7.75519	43.82782	31.64433	55.70121	7.13427	8.60209	6.79328	39.05289	17.18426	29.47196
40500	5.41710	5.91834	7.50309	23.70160	23.41151	19.76083	13.18849	11.65101	6.99536	16.42600	28.57379	18.99035	3.80345	6.33422	4.37383	34.95598	23.35054	34.52328
40660	8.24069	7.73904	6.08331	25.78589	32.71070	23.65685	12.01445	7.93510	5.89597	26.37079	23.70943	28.47582	9.32897	8.66639	7.74453	13.70987	12.06486	18.22197
40830	7.43084	6.12547	4.41290	7.54301	11.00280	7.27087	11.48347	7.34423	5.87548	11.11935	12.24842	11.76846	7.55083	5.69323	5.93712	20.20294	17.95518	15.53730
40990	5.33269	7.16651	6.90430	17.24417	20.22973	17.41882	10.72184	8.05922	10.81515	26.34852	19.45687	21.63710	5.52803	7.50758	6.93017	22.81990	14.67515	11.06500	26.17	6.1	0.00	7.42	0.01273	0.01290	0.01660	0.00774	0.00576	0.00632	0.00468	0.01266	0.01686	0.00671	0.00682	0.00881	0.01490	0.01096	0.01197	0.00216	0.00614	0.00862
41160	3.99750	4.96657	3.67993	29.49899	32.13550	11.78330	7.46077	7.85762	3.73864	21.89543	24.21194	16.46688	6.05460	7.56214	8.46925	35.66491	26.22417	28.25813
41320	5.05017	6.59877	7.05221	17.44121	30.31284	13.69878	8.38273	11.40569	9.55924	21.36645	18.05756	10.69579	6.39687	5.84587	10.68890	16.07689	15.57529	13.16061
41480	5.09976	7.45569	6.33980	20.38441	16.97109	17.04002	11.18350	9.80441	8.20087	32.73544	31.38949	18.24820	5.34142	4.64729	3.69594	28.77949	15.46841	25.61829
41650	4.83872	5.78983	5.79323	27.87202	21.24832	19.60383	10.70685	8.92233	6.05647	11.88637	18.71986	12.80193	3.99518	3.96204	4.29897	15.51916	21.97204	20.05593
41810	8.22698	6.19842	5.52960	15.97716	21.73413	14.10453	9.24838	7.81745	4.93034	22.83504	21.33483	9.94506	8.41874	6.01716	7.20282	13.01451	13.03752	14.65930
41970	5.96460	3.42576	4.50905	16.60757	29.91819	20.94029	8.62154	5.43965	3.98056	37.72601	44.60543	31.54475	6.79947	6.74554	5.28669	42.83765	37.26093	18.41331
42140	7.00900	8.26626	7.16706	14.19271	13.33162	20.20550	13.63615	12.01595	10.33965	23.65218	20.61231	16.01065	6.99853	5.06616	4.25841	20.23111	26.24162	23.71946
42300	2.40453	3.32311	4.91938	25.41186	23.78048	26.19000	9.17867	7.90409	5.84483	16.90910	19.35365	26.84358	2.73407	4.30030	6.95770	50.08230	64.94572	69.71770
42460	9.15427	8.21508	7.88733	21.83413	55.15299	48.14029	13.98807	11.05466	10.20723	45.62467	30.64074	32.21327	9.84815	8.08708	8.72413	32.23155	42.17349	43.32438
42630	7.29863	6.04521	5.83346	30.77323	33.88876	32.91337	7.81308	6.23625	6.07414	36.83926	45.39711	31.24006	8.30560	7.92722	4.64960	28.14268	30.41114	29.54017	26.29	6.1	0.00	7.39	0.01273	0.01290	0.01660	0.00774	0.00576	0.00632	0.00468	0.01266	0.01686	0.00671	0.00683	0.00881	0.01490	0.01096	0.01197	0.00216	0.00614	0.00862
42790	5.72603	5.33954	5.50237	24.00722	16.42086	15.44803	12.65369	8.86697	6.96958	24.73458	21.84344	20.02710	8.06634	9.07308	8.29905	22.66961	26.15302	32.69294
42950	4.98064	3.71195	5.17862	27.01281	31.28085	25.72552	10.48160	7.16738	5.53090	35.09958	31.00469	17.22458	5.96813	3.86824	4.03405	30.42321	29.19044	19.71702
43120	7.79591	4.91830	4.40219	26.54805	29.91213	20.31159	11.55720	8.82314	7.31542	10.20638	12.20590	11.53887	6.12915	6.16703	5.75989	19.81261	26.66792	16.49313
43280	7.55253	5.28447	6.02984	12.07288	10.96840	11.18436	8.66706	8.07892	5.45141	8.92731	6.96201	10.52850	6.24643	4.87495	6.56982	16.82052	8.35389	14.47791
43440	5.41616	5.42746	4.73674	15.41679	11.40948	6.77353	7.20020	7.24932	7.14901	12.52957	16.29675	10.94269	5.13987	6.23795	6.86089	10.55430	11.28979	12.48623
43610	5.57266	5.20334	2.51949	21.26781	5.38935	4.58492	8.17831	5.30254	3.21377	5.91019	9.16719	9.02748	2.88518	4.64504	6.27968	10.24216	9.12639	11.63037
43770	5.25159	4.65111	4.58944	10.66009	14.64327	10.67142	10.57238	9.39140	8.82544	12.59513	12.93718	18.76675	6.50319	5.74553	7.31196	17.52076	11.08088	11.50358
43930	7.15378	5.05368	6.53060	18.13592	17.07600	13.36025	8.66761	9.36633	6.70527	9.78974	8.30160	20.51394	6.30602	6.83083	5.70976	28.11071	16.27213	17.44770
44100	4.41136	2.76476	4.21415	17.52937	25.66914	13.85373	13.08065	8.61600	6.60636	25.76946	23.81104	33.16847	8.47023	4.83827	5.79479	29.78546	20.59564	30.35396
44260	6.04216	7.48118	6.88661	18.08925	36.12656	27.50612	13.27657	9.34402	10.77526	34.12314	21.72878	14.53884	9.48996	11.11548	11.47125	30.86473	28.78005	27.13831	26.23	6.2	0.00	7.40	0.01273	0.01290	0.01660	0.00774	0.00576	0.00632	0.00468	0.01266	0.01686	0.00671	0.00683	0.00881	0.01490	0.01096	0.01197	0.00216	0.00614	0.00862
44420	8.11965	7.33299	10.23668	46.18922	18.15799	35.24457	19.41432	14.53631	11.53868	27.44105	23.06591	28.43497	10.50213	11.52113	7.85333	43.50171	36.55464	35.68149
44590	6.81289	4.50245	6.01480	31.33797	52.36353	27.78277	9.56113	11.73274	7.75831	30.36277	36.73878	37.99684	9.88018	5.30759	5.42133	32.01705	35.40227	41.46622
44750	3.70484	4.38177	3.22651	27.94923	27.80651	21.56925	12.34587	8.12388	6.81312	16.59221	19.19537	16.01030	6.11912	8.14787	7.53820	19.33555	21.10677	25.29396
44920	7.05417	5.35835	6.00855	17.01689	17.46495	20.52021	13.74575	12.35950	10.67732	18.97943	16.89044	21.30722	13.47207	5.41738	7.74345	40.17664	41.47872	39.02147
45080	9.84347	11.25913	8.67964	51.84854	48.25592	28.09142	17.27819	13.38332	9.46896	29.71989	42.82398	27.34178	9.23600	7.36054	5.40081	16.51239	22.41263	27.08900
45240	6.02801	4.77855	6.25447	31.37622	28.58494	27.78062	9.96625	12.38792	8.08455	29.00215	58.87694	26.39437	12.48825	10.47105	10.61696	80.71646	74.02421	25.39973
45410	7.67358	7.75520	5.22736	37.46937	31.74994	42.50710	11.62349	8.90669	8.40481	31.19242	32.09003	36.19318	12.00828	5.00589	8.04153	49.34582	36.78716	49.10892
45570	5.08941	3.75222	4.19076	30.07881	25.35560	22.81939	14.64673	13.04755	7.47308	34.79369	21.19982	15.54959	5.45934	3.09158	3.01414	16.05296	11.78507	10.78666
45740	4.00456	4.46854	6.39273	9.18445	10.20011	5.55601	9.97867	8.98345	3.99259	12.59455	13.49058	18.78898	5.31367	5.24016	7.53815	23.34452	12.74056	10.31008
45900	4.93298	5.31385	5.01760	16.51447	18.58511	16.90381	13.48322	12.42662	11.06693	24.87646	21.73666	30.19144	12.81779	10.32274	11.49831	38.91640	29.03055	41.05677	26.23	6.1	0.00	7.35	0.01273	0.01290	0.01660	0.00774	0.00576	0.00632	0.00468	0.01266	0.01686	0.00671	0.00683	0.00881	0.01490	0.01096	0.01197	0.00216	0.00614	0.00862
46060	9.73134	10.96252	8.84262	31.40689	31.58993	34.53825	12.22741	10.32833	8.58767	21.59796	21.47413	23.60579	8.43202	6.66984	3.47184	26.55710	12.25648	15.93111
46230	5.41120	3.56754	4.08092	14.25584	7.81828	7.99336	8.80720	9.60102	8.57619	9.83983	11.53261	10.35110	6.81415	7.93653	4.48300	25.50199	12.05501	13.34387
46390	6.76965	6.44944	8.11178	19.73733	23.03735	31.06806	10.90813	9.23815	7.65530	25.12484	30.08715	32.32166	10.03692	9.24391	8.37303	30.41161	29.76009	17.87299
46560	5.20877	4.11528	5.77765	16.78167	18.96696	21.33600	11.14735	10.33513	7.29097	13.46174	17.51218	25.17433	6.44730	5.89397	8.34324	30.61925	17.70997	14.79687
46720	6.28580	6.41308	6.21183	13.36882	12.39621	7.86400	7.50708	5.52804	5.27490	8.30479	5.91922	11.51625	9.43104	8.19047	8.87793	14.14287	6.30428	5.25467
46880	4.47373	4.67158	4.88042	7.70933	7.79401	8.61811	8.37849	5.62704	5.61751	9.72445	6.05424	8.80706	3.63225	3.40351	4.41608	22.28073	9.40327	9.54294
47050	4.28180	2.84711	3.49702	12.63523	15.27678	26.18468	9.44178	5.54978	3.46056	17.58400	15.15984	13.24361	2.83255	2.61106	4.21817	15.09619	27.58859	21.62643
47210	2.48732	3.52467	5.17559	14.11925	16.69873	13.13488	13.33125	7.21649	5.12533	13.89328	10.83746	16.80074	9.95173	6.12564	7.19063	18.92988	13.74477	14.16977
47380	6.73780	3.99088	3.25206	11.85983	6.87562	8.39211	9.55644	7.79762	8.43987	23.66093	14.51571	20.39015	7.17710	8.22767	6.38306	28.34482	19.58201	21.84966
47540	5.38504	4.72187	5.81813	29.14167	19.18221	27.37083	9.77674	8.37000	7.35596	24.97515	12.03450	16.71627	4.97178	7.67953	6.25878	12.93111	15.61746	12.75337	26.29	6.0	0.00	7.36	0.01273	0.01290	0.01660	0.00774	0.00576	0.00632	0.00468	0.01266	0.01686	0.00671	0.00683	0.00881	0.01490	0.01096	0.01197	0.00216	0.00614	0.00862
47710	5.53170	6.08332	8.75110	22.22674	7.22912	14.17724	11.36370	8.39369	7.80533	15.62809	17.67909	15.77128	5.49098	5.73970	4.41790	13.11198	15.13511	21.47075
47870	6.50819	6.92985	4.58319	22.19904	17.94038	25.21940	10.42254	10.18747	8.51235	30.21410	23.82396	25.44814	8.99722	5.79233	3.67269	35.37316	43.77891	24.51164
48040	4.05787	6.25010	5.91107	27.83592	36.38026	26.80109	10.33873	8.64537	6.06594	20.29916	19.51394	29.36601	5.67871	4.92727	4.81187	30.56752	14.34909	22.97961
48200	9.65899	7.82972	6.94886	35.07051	13.68731	9.41093	9.38333	4.80771	4.54443	13.46268	8.24338	19.78558	7.95481	6.03978	5.49329	22.51925	13.98518	20.98614
48360	2.30877	3.97648	6.75480	13.14964	21.95920	17.51589	9.57828	7.71692	5.88091	16.56286	17.23340	13.35516	5.14856	4.93802	5.99243	32.58463	28.84550	29.24132
48530	7.11270	10.27514	6.75912	27.21656	25.68261	44.11765	14.43048	8.32131	7.50564	28.14228	22.16627	34.54728	6.59694	9.18219	8.94446	18.64010	35.64675	27.82003
48690	6.05240	3.02235	2.42766	20.51334	13.29702	9.92805	10.03889	10.08780	7.12300	18.37857	13.40041	27.49533	8.25870	4.34520	4.41307	19.79743	19.43900	11.91826
48860	3.66469	2.54445	3.79589	14.71247	9.48443	14.80344	7.16302	6.43592	3.80035	15.25673	13.96594	19.32859	5.87293	2.86819	3.22751	23.80942	18.75703	13.40552
49020	3.78275	6.39108	5.25381	8.66428	6.68323	7.06029	11.03713	9.81127	8.24407	12.08135	17.53360	16.21916	4.84403	7.07925	5.01025	16.77619	18.64192	20.50953
49190	3.57589	4.93514	3.47993	14.11139	15.79387	9.41629	10.37111	10.62381	8.10834	10.93447	15.28766	13.93226	4.09456	4.20165	3.98789	31.05321	20.59479	22.69103	26.23	6.1	0.00	7.55	0.01273	0.01290	0.01660	0.00774	0.00576	0.00632	0.00468	0.01266	0.01686	0.00671	0.00683	0.00881	0.01490	0.01096	0.01197	0.00216	0.00614	0.00862
49350	4.54269	6.73456	6.18285	26.97015	27.22828	27.07069	9.61831	7.12335	6.70128	20.38728	17.29200	28.88669	7.77398	6.98437	6.02717	35.85481	31.94394	31.49887
49520	4.81076	4.36867	4.03023	23.28546	35.91499	27.84502	12.07913	9.75735	11.47500	41.93200	44.15250	30.99653	9.82734	10.81133	8.28276	35.81825	40.50576	30.78155
49680	7.18430	7.08429	4.06378	34.48266	28.11541	41.24874	9.75665	7.44657	7.16350	24.76206	25.05861	23.89165	6.72332	5.13847	7.36330	20.06960	14.77178	8.15402
49850	3.42014	6.42933	6.75276	20.54973	13.33916	9.26760	12.21675	9.36860	4.75286	12.64593	16.30426	23.28375	3.34694	2.31242	2.75844	31.02722	15.18080	13.78255
50010	2.37144	7.03477	6.34883	23.03594	14.81340	20.82446	12.81772	10.61427	9.73400	25.94200	35.66861	25.11918	7.99254	8.16106	7.40685	33.50229	28.38411	37.64210
50170	7.09828	4.07781	4.12156	28.37215	33.45212	30.73076	8.99108	6.77205	4.36020	23.67634	26.48948	24.37461	5.40013	5.28637	5.29276	19.55180	35.45556	35.65282
50340	3.56255	5.44163	5.56567	29.66066	21.40812	19.17286	9.05855	7.38530	6.69737	15.38305	17.27606	16.64497	5.50465	5.28420	5.83859	17.73332	14.53300	10.53005
50500	3.78695	3.33120	4.01740	7.83143	9.42947	9.58949	12.09802	9.99209	8.21185	11.60526	14.10106	18.70949	7.79075	4.97720	9.85556	31.84140	37.05379	27.30662
50670	6.57269	6.62264	5.82356	23.06224	19.33691	27.58058	7.67314	8.86094	8.27740	34.48678	17.14546	25.82307	5.26138	5.08849	6.15359	29.93693	10.13210	27.34952
50830	6.32737	4.38313	3.93878	35.37458	25.38694	18.53830	11.74473	7.43129	7.55201	20.33942	19.09183	14.37196	8.09602	5.46238	5.82099	25.36087	16.73735	24.48754	26.23	6.0	0.00	7.55	0.01273	0.01290	0.01660	0.00774	0.00576	0.00632	0.00468	0.01266	0.01686	0.00671	0.00683	0.00881	0.01490	0.01096	0.01198	0.00216	0.00614	0.00862
50990	6.97521	4.61597	4.54290	13.77920	16.56404	14.58279	11.10647	5.33611	4.05922	15.91062	12.05534	15.61593	5.38459	4.95268	5.97195	11.15783	14.69293	18.34325
51160	4.76463	5.41339	4.29403	8.54468	17.06673	19.60209	11.51571	7.58301	9.13322	13.40794	16.69412	22.54784	6.87766	6.18761	6.90434	17.55568	16.87136	7.43046
51320	8.77859	10.63585	5.03990	7.80175	9.90603	6.07028	8.39261	5.95204	6.31337	9.08622	11.70550	10.18259	3.79604	6.00623	3.84787	24.46280	17.83273	12.50571
51480	6.30170	5.51748	5.61639	11.04500	8.74724	8.14754	10.24059	7.20852	6.69419	15.20492	13.06080	8.92977	7.66468	8.76908	6.75451	16.60745	15.93365	17.46037
51650	3.82293	7.31321	5.09520	22.85055	27.35259	21.83764	9.46587	6.93195	6.41305	19.58608	14.56060	27.35505	8.17468	7.61032	7.30983	21.87219	16.90493	32.36588
51810	4.22284	6.78213	4.40609	11.71793	15.39263	12.31495	8.89874	6.23022	6.25214	9.67630	7.96728	14.41112	7.61030	5.33322	7.03913	21.37055	19.49260	20.90235
51970	7.37125	8.50831	10.50526	36.78263	33.50374	30.47760	11.68328	10.18407	10.65276	22.36677	11.78455	28.23459	4.38315	3.83408	5.09390	22.09963	26.92331	30.75431
52140	7.74221	8.38453	7.22631	22.53310	15.51871	27.63900	13.38286	13.03605	9.79514	27.91583	28.64661	37.98131	9.19813	9.26412	9.66826	20.70743	36.23530	33.65201
52300	8.15004	6.74647	6.82756	20.62147	11.43277	10.48798	10.82467	7.67457	7.00451	23.50442	17.09962	23.96931	9.21161	6.04095	6.14203	43.87296	27.32860	17.49158
52460	7.68636	7.87815	7.26096	27.27950	13.40947	13.71626	10.43753	7.79689	9.74782	25.88126	15.83198	14.70499	7.26287	6.76253	8.24958	11.69256	8.07006	9.61523	26.23	6.0	0.00	7.43	0.01273	0.01290	0.01660	0.00774	0.00576	0.00632	0.00468	0.01266	0.01686	0.00672	0.00683	0.00881	0.01490	0.01096	0.01197	0.00216	0.00614	0.00862
52630	3.46378	6.85940	6.93526	8.82405	8.85816	8.19207	11.57167	7.40624	6.98949	11.26835	9.89220	10.08159	5.89826	4.62227	6.55279	17.17920	20.53810	18.14463
52790	6.87449	4.46732	4.55880	19.40653	11.77345	13.36415	11.14301	6.68184	4.20940	16.00384	14.32135	26.86805	9.33975	5.40945	5.53363	22.76332	30.30739	24.61601
52950	7.94422	5.05439	4.91018	16.28965	24.72485	13.78554	11.61178	9.87488	8.46950	36.92248	25.94945	21.01194	5.98030	7.85783	4.43375	22.57713	21.66096	17.33128
53120	6.51129	8.09040	6.62125	16.27939	10.34198	8.12747	11.73906	8.43689	8.53826	6.90766	10.29707	13.49744	8.27890	8.77035	8.14716	23.29752	18.07654	15.34322
53280	5.51415	3.87378	7.58982	20.73969	11.18848	7.01822	10.72741	5.96676	3.97034	10.21142	12.12083	13.71523	5.53209	4.34675	3.86156	9.92977	13.55465	11.66573
53450	3.13212	4.17024	6.02514	13.02635	9.30688	9.53462	8.88092	9.29714	8.27064	7.38528	10.39694	10.04366	5.32375	4.71624	4.49620	15.45124	10.56490	10.24677
53610	3.50175	2.59274	3.58873	13.58538	10.37640	9.69763	9.53805	6.30018	5.21992	5.29966	8.15695	5.49004	3.49617	5.27502	6.49110	18.93816	21.85378	11.08319
53770	5.13924	4.23734	3.96289	10.71420	12.64037	19.01176	7.47614	6.56300	6.77217	11.25094	13.09115	17.04552	4.71486	7.62648	4.15864	31.23214	26.06675	18.43903
53940	6.40634	4.36544	7.72924	13.69244	15.62965	23.55184	11.47316	7.86999	8.16042	18.76500	38.77130	41.62752	5.91583	6.77321	6.18532	57.46841	36.17812	31.94735
54100	5.83253	5.37708	5.90705	33.51139	19.39655	12.83855	12.83596	14.04604	12.73920	12.81395	7.13434	7.98475	5.31893	6.38146	7.69236	17.68366	14.42431	15.07876	26.29	6.0	0.00	7.36	0.01273	0.01290	0.01660	0.00774	0.00576	0.00632	0.00468	0.01266	0.01686	0.00672	0.00684	0.00882	0.01490	0.01096	0.01197	0.00216	0.00614	0.00862
54270	7.20717	7.59369	3.99962	34.48442	28.67315	38.00626	10.70857	10.38464	9.51038	29.93010	21.64746	23.86525	6.49495	4.63313	7.11934	28.64954	24.69299	19.66763
54430	8.87724	4.38672	2.34887	19.90332	14.27401	17.52452	10.71660	6.26075	5.60463	21.98973	28.64835	30.12035	6.60340	7.37400	8.44015	36.83000	34.20968	36.62976
54590	4.55359	5.07140	7.17453	19.21119	26.75557	28.48786	12.08708	12.13956	11.48854	30.50214	29.33541	19.66072	10.07076	9.26718	5.29220	15.27075	12.15658	10.92399
54760	3.51270	7.33470	4.59098	12.40961	26.56695	18.42184	8.36716	7.15113	5.91288	9.99064	14.40191	10.21883	6.13019	6.55644	6.25690	20.58872	15.51410	10.52196
54920	5.87091	2.54771	3.01136	19.22344	11.64358	12.63201	9.54484	6.12980	3.83137	15.19325	5.70103	8.33035	5.76310	7.49801	6.99752	15.96539	16.18803	8.34711
55080	4.57601	3.20925	2.07837	10.92485	10.37328	12.30129	6.86031	5.85460	6.57613	9.15474	10.33588	11.46641	5.47447	4.30281	4.49310	12.60528	12.67437	15.06605
55250	6.64607	3.86514	6.23948	5.84465	10.29349	13.14210	12.93464	5.07614	8.71388	12.97079	12.67189	10.58238	6.46225	5.50778	5.31663	12.02162	11.78358	6.19184
55410	5.53157	4.49309	4.00779	4.54847	5.17344	4.74567	8.03474	7.24094	4.43480	5.08134	4.86659	4.98649	3.38053	3.48317	2.93096	8.84562	7.25409	4.44707
55570	2.93885	1.64816	2.96609	4.52951	3.53625	7.55641	10.74059	6.04958	4.79639	7.35524	3.43839	3.43547	6.61354	6.83515	5.69813	12.40094	9.77881	12.22515
55740	4.50942	4.51544	5.11660	18.49346	13.02234	17.33571	7.68362	6.16015	5.18302	14.02151	35.03873	16.34882	6.26874	6.81151	5.68285	31.52444	19.85475	17.73847	26.23	6.1	0.00	7.54	0.01273	0.01290	0.01660	0.00774	0.00576	0.00632	0.00468	0.01266	0.01686	0.00672	0.00684	0.00882	0.01490	0.01096	0.01197	0.00217	0.00614	0.00862
55900	9.97613	8.84909	5.92131	32.96194	41.57811	32.10806	10.08526	10.62870	8.01881	27.81239	27.28040	18.37754	6.14874	6.97727	4.28486	24.19755	18.55986	14.41028
56070	4.99606	3.60601	2.15138	13.58657	20.30785	15.55059	10.26237	5.86613	5.05072	19.81849	12.80692	9.39850	8.20558	9.21322	9.53692	24.61408	37.20662	24.89389
56230	7.61242	11.74546	11.96253	51.51892	23.15022	55.88068	14.42657	12.10740	9.17634	45.76781	29.36994	34.69080	9.61569	7.14201	6.05566	27.65246	25.70655	23.73989
56390	7.53049	9.07519	7.88934	32.91797	31.40215	57.33666	11.67863	9.07100	9.87825	40.86927	26.79137	22.04739	7.65233	10.40303	10.35165	25.62268	22.67603	23.25224
56560	10.11625	9.10048	7.73739	13.28357	18.54247	19.84325	11.52253	10.45180	6.92368	16.50432	20.29527	14.03847	8.70471	7.97034	3.95262	19.87126	24.58070	11.96971
56720	4.90997	6.37535	5.96520	24.51909	10.38138	11.54373	6.20438	7.24313	6.60048	12.70632	12.21646	25.72268	6.47487	8.00181	6.56044	28.48895	21.98599	18.36439
56890	3.69342	2.64779	3.88846	30.53798	20.60186	12.77955	7.30502	4.70640	5.49128	12.93276	12.41626	7.84570	5.29227	6.32659	6.95450	25.09019	30.39277	15.14842
57050	6.46468	4.50850	5.36509	10.41735	7.00050	5.12605	9.99233	8.24855	6.09721	3.93795	9.10014	8.17593	4.80157	6.56598	5.16793	16.09585	13.67915	11.57124
57220	6.44824	5.71441	3.08044	11.21304	11.02581	13.99042	8.98944	10.24346	7.71092	10.22032	12.43698	8.84619	8.58102	8.21247	8.42804	23.22711	14.53822	16.05263
57380	7.01265	5.11111	4.07789	20.68682	14.30850	17.59178	8.61435	5.90581	6.98294	22.17810	23.98157	17.02803	7.65720	9.37673	6.27292	37.76587	35.22241	16.03898	26.23	6.0	0.00	7.42	0.01273	0.01290	0.01660	0.00774	0.00576	0.00632	0.00468	0.01266	0.01686	0.00672	0.00684	0.00882	0.01490	0.01096	0.01197	0.00217	0.00614	0.00862
57550	5.15943	5.46369	4.69490	17.68240	22.97175	21.49780	8.30840	8.10382	11.41649	24.29328	22.62549	33.99897	9.83822	10.23702	10.15954	27.03501	31.94798	46.97254
57710	12.61773	10.82316	8.28050	56.74070	52.20775	31.51691	12.72131	10.06476	4.99547	35.74852	21.78706	28.76015	8.83208	7.04275	8.27468	20.66293	15.16286	20.87848
57870	3.35647	6.26796	5.40386	19.96188	24.22400	11.11535	8.71629	8.55239	7.41578	9.64176	17.93728	13.60928	6.91251	3.30819	4.56016	9.34345	11.36531	18.97820
58040	3.29729	2.47557	2.49980	12.19906	10.07135	21.35074	7.09468	7.53671	6.76427	7.97089	12.02117	9.84897	7.76549	8.55435	5.90667	14.47395	19.24206	17.13451
58200	2.79017	3.33602	3.88067	26.16052	31.56964	22.17611	7.01815	5.13447	3.08713	21.21216	19.86175	25.02349	4.81638	5.73574	6.35863	16.18024	23.99747	15.27080
58360	3.28295	4.44400	4.79011	17.61534	15.03088	12.95787	10.76664	7.29200	9.35326	20.35575	14.97414	7.70993	4.16998	5.02368	5.92766	13.52018	10.61246	12.09745
58530	4.75105	3.66685	3.55793	5.42319	9.85441	13.15680	6.81856	5.92477	4.34968	9.19979	9.15371	11.46611	6.55399	7.95180	7.38478	21.70797	14.40604	13.13738
58690	5.92844	5.30853	4.91033	5.71917	7.01579	15.22288	10.89976	5.75524	3.93282	17.84151	11.58761	9.79762	6.15675	5.39608	5.14627	21.66034	28.76761	25.62129
