WetView ver 7.1	07-17-2019	12:11:19
AC9 Absorption and Attenuation Meter
00000311		; Serial number
2	; structure version number
Reserved
0.000000	0.000000		; Depth calibration
19200			; Baud rate
0.100000			; Path length (meters)
23			; number of temperature calibration bins
				12.61517	13.44096	14.46844	15.49904	16.50682	17.50108	18.49752	19.51783	20.49177	21.49009	22.48286	23.50673	24.54012	25.54812	26.49986	27.49321	28.50960	29.48671	30.47471	31.49432	32.50437	33.48679	34.49133	; temperature bins
a650	Blue	18.61587		0.01156	0.01096	0.01010	0.00930	0.00851	0.00774	0.00661	0.00573	0.00499	0.00402	0.00285	0.00203	0.00096	0.00000	-0.00110	-0.00152	-0.00210	-0.00247	-0.00259	-0.00317	-0.00346	-0.00380	-0.00403		; offset and temperature correction info
a676	Green	18.78942		0.00964	0.00899	0.00863	0.00813	0.00730	0.00639	0.00545	0.00448	0.00385	0.00301	0.00233	0.00165	0.00046	0.00000	-0.00106	-0.00167	-0.00251	-0.00280	-0.00316	-0.00329	-0.00377	-0.00392	-0.00441		; offset and temperature correction info
a715	Brown	18.59217		0.01171	0.01109	0.01043	0.00975	0.00878	0.00789	0.00685	0.00572	0.00469	0.00356	0.00255	0.00160	0.00061	0.00000	-0.00063	-0.00113	-0.00152	-0.00183	-0.00226	-0.00293	-0.00364	-0.00404	-0.00473		; offset and temperature correction info
c510	Red	18.18396		-0.00549	-0.00480	-0.00383	-0.00272	-0.00202	-0.00118	-0.00044	-0.00038	-0.00015	-0.00021	0.00013	0.00007	-0.00007	0.00000	-0.00007	-0.00065	-0.00045	-0.00018	0.00007	0.00039	-0.00001	-0.00002	-0.00045		; offset and temperature correction info
c532	Magenta	18.26528		-0.00721	-0.00645	-0.00581	-0.00518	-0.00465	-0.00345	-0.00281	-0.00270	-0.00182	-0.00141	-0.00108	-0.00072	-0.00022	0.00000	0.00044	0.00030	0.00031	-0.00006	-0.00052	-0.00089	-0.00142	-0.00149	-0.00154		; offset and temperature correction info
c555	Black	18.37125		-0.00430	-0.00419	-0.00381	-0.00319	-0.00286	-0.00254	-0.00205	-0.00196	-0.00138	-0.00137	-0.00067	-0.00051	-0.00030	0.00000	0.00067	0.00087	0.00057	0.00027	-0.00015	-0.00089	-0.00127	-0.00137	-0.00150		; offset and temperature correction info
a412	LtBlue	15.33566		-0.06011	-0.05567	-0.05012	-0.04441	-0.03922	-0.03412	-0.02941	-0.02503	-0.02049	-0.01588	-0.01121	-0.00784	-0.00311	0.00000	0.00273	0.00611	0.00757	0.00871	0.01066	0.01299	0.01539	0.01781	0.02175		; offset and temperature correction info
a440	LtGreen	16.05925		-0.01380	-0.01214	-0.01039	-0.00858	-0.00690	-0.00532	-0.00426	-0.00322	-0.00230	-0.00158	-0.00055	0.00006	0.00001	0.00000	0.00017	0.00016	-0.00094	-0.00222	-0.00363	-0.00486	-0.00567	-0.00651	-0.00782		; offset and temperature correction info
a488	Yellow	16.82827		0.00255	0.00293	0.00331	0.00354	0.00373	0.00378	0.00363	0.00350	0.00291	0.00225	0.00215	0.00142	0.00099	0.00000	-0.00092	-0.00169	-0.00295	-0.00396	-0.00479	-0.00542	-0.00582	-0.00604	-0.00663		; offset and temperature correction info
c650	Blue	18.49287		-0.00570	-0.00516	-0.00456	-0.00403	-0.00346	-0.00232	-0.00132	-0.00122	-0.00073	-0.00066	-0.00035	-0.00016	0.00003	0.00000	0.00044	0.00078	0.00108	0.00057	0.00040	-0.00042	-0.00033	-0.00029	-0.00034		; offset and temperature correction info
c676	Green	18.50570		0.00299	0.00293	0.00287	0.00293	0.00278	0.00294	0.00317	0.00251	0.00243	0.00215	0.00139	0.00123	0.00068	0.00000	-0.00041	-0.00106	-0.00205	-0.00268	-0.00325	-0.00413	-0.00495	-0.00610	-0.00674		; offset and temperature correction info
c715	Brown	17.88888		0.00826	0.00812	0.00773	0.00790	0.00766	0.00758	0.00753	0.00650	0.00571	0.00461	0.00359	0.00222	0.00101	0.00000	-0.00146	-0.00284	-0.00385	-0.00448	-0.00463	-0.00513	-0.00623	-0.00715	-0.00838		; offset and temperature correction info
a510	Red	17.18050		0.00353	0.00364	0.00354	0.00361	0.00381	0.00381	0.00356	0.00332	0.00277	0.00229	0.00176	0.00116	0.00036	0.00000	-0.00014	-0.00069	-0.00088	-0.00147	-0.00150	-0.00129	-0.00120	-0.00134	-0.00091		; offset and temperature correction info
a532	Magenta	17.40228		0.00550	0.00548	0.00526	0.00479	0.00464	0.00422	0.00393	0.00328	0.00253	0.00212	0.00136	0.00085	0.00039	0.00000	-0.00059	-0.00146	-0.00188	-0.00262	-0.00330	-0.00393	-0.00491	-0.00540	-0.00605		; offset and temperature correction info
a555	Black	17.72308		0.00849	0.00832	0.00800	0.00760	0.00724	0.00655	0.00580	0.00495	0.00435	0.00347	0.00252	0.00153	0.00049	0.00000	-0.00050	-0.00155	-0.00214	-0.00306	-0.00350	-0.00411	-0.00470	-0.00539	-0.00570		; offset and temperature correction info
c412	LtBlue	16.72802		-0.05949	-0.05458	-0.04744	-0.04134	-0.03547	-0.03064	-0.02511	-0.02047	-0.01574	-0.01163	-0.00761	-0.00442	-0.00204	0.00000	0.00100	0.00051	-0.00043	-0.00239	-0.00475	-0.00629	-0.00827	-0.00955	-0.01337		; offset and temperature correction info
c440	LtGreen	17.42637		-0.02723	-0.02503	-0.02216	-0.01930	-0.01691	-0.01394	-0.01125	-0.00926	-0.00732	-0.00582	-0.00401	-0.00226	-0.00093	0.00000	0.00082	0.00123	0.00133	0.00097	0.00038	-0.00003	-0.00022	-0.00023	-0.00125		; offset and temperature correction info
c488	Yellow	18.03666		-0.00640	-0.00554	-0.00465	-0.00357	-0.00276	-0.00154	-0.00067	-0.00031	-0.00014	-0.00012	0.00046	0.00032	0.00020	0.00000	0.00001	-0.00024	-0.00060	-0.00084	-0.00126	-0.00180	-0.00276	-0.00304	-0.00427		; offset and temperature correction info
0.003500	0.004000	0.015000	0.020000	0.015000	0.020000	2500.000000	2000.000000	1000.000000	; maxANoise	maxCNoise	maxADifference	maxCDifference	minACounts	minCCounts	minRCounts	maxTempSdev	maxDepthSdev
0			; auxilliary capabilities
1			; acquisition binsize
0	3.68118	3.70589	3.32435	14.41887	13.76277	12.90649	13.92103	9.88946	6.66025	11.42601	10.95332	10.54509	5.72806	5.01710	4.54785	23.49657	18.92839	15.33883	36.92	6.1	0.00	-2.04	0.01730	0.01200	0.01518	0.01815	0.01877	0.01468	0.00548	0.01519	0.02007	0.01846	0.01281	0.01633	0.01708	0.01764	0.01378	0.00569	0.01602	0.02131
170	3.69114	3.71640	3.32204	14.41812	13.76396	12.90740	13.90834	9.87093	6.63283	11.42516	10.95254	10.54050	5.72358	5.01951	4.55844	23.47132	18.92506	15.33735
330	3.70658	3.72977	3.33278	14.42351	13.76653	12.90990	13.90144	9.87080	6.63336	11.42800	10.95437	10.54412	5.71661	5.01367	4.55143	23.48239	18.93367	15.34213
500	3.70400	3.72899	3.33738	14.43116	13.77279	12.91641	13.92170	9.88035	6.64640	11.43290	10.96222	10.55253	5.71889	5.01346	4.54550	23.50643	18.93734	15.35068
660	3.69197	3.71888	3.32795	14.43531	13.77758	12.92050	13.93820	9.88202	6.65770	11.43450	10.96292	10.55407	5.73409	5.02113	4.55110	23.50294	18.93687	15.35053
830	3.68159	3.70162	3.30900	14.43518	13.77733	12.92048	13.92236	9.88570	6.65940	11.43788	10.96716	10.55822	5.74677	5.03277	4.55883	23.49985	18.94764	15.35482
990	3.69282	3.70888	3.31140	14.43739	13.78115	12.92255	13.89822	9.87213	6.64532	11.43909	10.97025	10.55861	5.73279	5.02951	4.56276	23.50952	18.94574	15.35846
1160	3.71039	3.72997	3.33229	14.43911	13.78021	12.92514	13.90588	9.86364	6.63150	11.44630	10.97397	10.56427	5.71739	5.01546	4.55393	23.50726	18.94548	15.35435
1320	3.71284	3.73725	3.34604	14.43777	13.78815	12.93021	13.92066	9.87667	6.63259	11.44751	10.97568	10.56477	5.70876	5.00627	4.54770	23.50150	18.94548	15.35794
1490	3.71218	3.73952	3.34622	14.44331	13.78494	12.92392	13.91706	9.87234	6.63601	11.43955	10.97130	10.56328	5.71139	5.00686	4.54005	23.50685	18.94561	15.36167
1650	3.70253	3.73206	3.34712	14.44367	13.78679	12.92980	13.92046	9.89420	6.65306	11.44517	10.97773	10.56998	5.71060	4.99858	4.52846	23.50139	18.95040	15.36093	36.92	5.9	0.00	-2.04	0.01730	0.01200	0.01519	0.01814	0.01876	0.01468	0.00548	0.01519	0.02007	0.01846	0.01281	0.01633	0.01708	0.01764	0.01378	0.00569	0.01602	0.02131
1810	3.69235	3.72317	3.33963	14.44952	13.79414	12.93444	13.93392	9.89934	6.66302	11.44978	10.98347	10.57500	5.72809	5.01390	4.53884	23.50529	18.95227	15.36279
1980	3.68777	3.71348	3.32520	14.44744	13.78973	12.93347	13.91127	9.89272	6.65921	11.44611	10.98047	10.57252	5.73586	5.02039	4.54727	23.52877	18.95530	15.36157
2140	3.68458	3.70395	3.32135	14.44598	13.78977	12.93156	13.92406	9.89231	6.66277	11.44425	10.98080	10.57459	5.73660	5.02230	4.55169	23.51085	18.94347	15.35710
2300	3.68818	3.70785	3.31725	14.44243	13.78313	12.92499	13.89708	9.87033	6.64101	11.44133	10.97797	10.57189	5.72910	5.02559	4.55905	23.50303	18.94334	15.35699
2470	3.70816	3.73068	3.33547	14.44376	13.78967	12.93067	13.90768	9.87901	6.63835	11.44771	10.98167	10.57635	5.71660	5.00587	4.54229	23.50509	18.94278	15.35887
2630	3.70058	3.72870	3.34706	14.44742	13.79202	12.93415	13.93516	9.90101	6.66091	11.45192	10.98691	10.58367	5.71499	4.99529	4.51945	23.50632	18.94798	15.35804
2800	3.68468	3.72157	3.33822	14.44805	13.79355	12.93814	13.94655	9.90370	6.66800	11.45713	10.99173	10.58564	5.73541	5.01898	4.54793	23.51106	18.95261	15.36653
2960	3.67975	3.70164	3.31239	14.45948	13.80625	12.94611	13.91137	9.89871	6.67020	11.46000	10.99757	10.59307	5.74670	5.03187	4.55881	23.52218	18.96380	15.37672
3130	3.68729	3.70776	3.32090	14.46127	13.80521	12.94687	13.92074	9.88984	6.65916	11.45764	10.99961	10.59613	5.73483	5.02288	4.55415	23.52032	18.95643	15.37576
3290	3.69538	3.71770	3.32744	14.46312	13.80390	12.94903	13.90452	9.88713	6.65839	11.46153	11.00038	10.59647	5.73522	5.02291	4.55481	23.52196	18.95553	15.37342	36.92	6.0	0.00	-2.04	0.01730	0.01200	0.01519	0.01814	0.01876	0.01468	0.00548	0.01519	0.02007	0.01846	0.01281	0.01633	0.01709	0.01764	0.01379	0.00569	0.01602	0.02131
3450	3.69430	3.71454	3.32002	14.46318	13.80817	12.95245	13.92763	9.88246	6.65822	11.45786	10.99638	10.59515	5.73913	5.02629	4.55600	23.51125	18.95770	15.37344
3620	3.68978	3.71183	3.32007	14.45927	13.80245	12.94593	13.93560	9.87929	6.64975	11.45714	10.99774	10.59506	5.73759	5.03260	4.56517	23.51599	18.96060	15.37704
3780	3.70930	3.72731	3.33146	14.46314	13.80994	12.95540	13.91957	9.87253	6.63857	11.46259	11.00053	10.59913	5.72444	5.02382	4.56174	23.50590	18.95540	15.37168
3940	3.71309	3.74259	3.35048	14.46167	13.80764	12.94896	13.93787	9.88404	6.64093	11.46270	11.00170	10.60076	5.70947	5.00061	4.53883	23.50549	18.95696	15.37213
4110	3.71439	3.75121	3.36728	14.46094	13.80636	12.95148	13.95621	9.88470	6.62950	11.46614	11.00708	10.60351	5.68698	4.98300	4.52742	23.51557	18.95505	15.37067
4270	3.71753	3.76143	3.37892	14.46359	13.81771	12.96218	13.96439	9.89362	6.64868	11.46323	11.00180	10.60280	5.70476	4.98985	4.51635	23.51413	18.96064	15.37841
4440	3.67671	3.71310	3.34353	14.46966	13.81099	12.95354	13.93588	9.93079	6.68960	11.46881	11.00389	10.59691	5.73945	5.01147	4.52191	23.51866	18.96676	15.38021
4600	3.65712	3.68804	3.31036	14.46241	13.81158	12.95640	13.94243	9.89612	6.67848	11.46802	11.00925	10.60749	5.75788	5.04404	4.57320	23.50878	18.96181	15.37779
4770	3.69514	3.70850	3.31214	14.46731	13.81460	12.95885	13.89544	9.86438	6.63910	11.46204	11.00694	10.60771	5.72647	5.02212	4.55749	23.50528	18.96112	15.37948
4930	3.71095	3.74127	3.35160	14.47058	13.81636	12.95522	13.91732	9.88804	6.64819	11.46274	11.00905	10.60820	5.71482	5.00280	4.53394	23.50960	18.96454	15.37895	36.92	6.1	0.00	-2.04	0.01730	0.01200	0.01519	0.01814	0.01876	0.01468	0.00548	0.01519	0.02007	0.01846	0.01281	0.01633	0.01709	0.01764	0.01379	0.00569	0.01602	0.02131
5100	3.68931	3.72243	3.33594	14.47185	13.81909	12.95475	13.95052	9.90137	6.67337	11.46308	11.00714	10.60769	5.74626	5.03013	4.55572	23.52485	18.96246	15.37880
5260	3.68289	3.70079	3.30477	14.47051	13.81789	12.95964	13.91590	9.87954	6.65583	11.46917	11.00883	10.60853	5.75816	5.05519	4.59305	23.52959	18.96419	15.38108
5430	3.71814	3.72418	3.32057	14.47035	13.81891	12.96023	13.88979	9.84971	6.62376	11.46327	11.00779	10.61306	5.73304	5.03628	4.58358	23.52876	18.96801	15.38011
5590	3.73919	3.75374	3.35007	14.48169	13.82567	12.96231	13.90407	9.85783	6.62601	11.46501	11.01298	10.61787	5.71509	5.02055	4.56458	23.51022	18.96480	15.38052
5750	3.72750	3.75141	3.35599	14.47670	13.82378	12.96151	13.92281	9.87870	6.63636	11.46617	11.00867	10.61503	5.71003	5.00353	4.54087	23.52464	18.96797	15.37934
5920	3.71130	3.74696	3.36450	14.46920	13.81970	12.96165	13.93362	9.89453	6.64899	11.46433	11.00656	10.61271	5.71286	5.00458	4.54121	23.51228	18.95812	15.37463
6080	3.70401	3.73478	3.34477	14.47357	13.82422	12.96394	13.92338	9.87735	6.64473	11.46778	11.01107	10.61583	5.72671	5.02133	4.55808	23.50384	18.95621	15.37484
6250	3.71231	3.73193	3.33564	14.47384	13.82139	12.96089	13.89622	9.87019	6.63812	11.47092	11.01645	10.61861	5.71816	5.01425	4.55151	23.50446	18.96406	15.38013
6410	3.71315	3.74414	3.35893	14.47022	13.81803	12.96279	13.92082	9.88829	6.64588	11.47186	11.01652	10.62224	5.70496	4.99233	4.52626	23.51146	18.96411	15.38033
6580	3.69446	3.73065	3.35406	14.47612	13.82604	12.96998	13.95435	9.91316	6.67580	11.47653	11.02061	10.62608	5.73208	5.01200	4.53293	23.52154	18.96770	15.38497	36.92	6.3	0.00	-2.04	0.01730	0.01200	0.01519	0.01814	0.01876	0.01468	0.00548	0.01519	0.02007	0.01846	0.01281	0.01633	0.01709	0.01765	0.01379	0.00569	0.01602	0.02131
6740	3.67888	3.70524	3.32514	14.47838	13.82361	12.96459	13.91659	9.90642	6.68102	11.47183	11.01498	10.62447	5.75292	5.03332	4.55823	23.52360	18.96770	15.38232
6900	3.68160	3.69990	3.31444	14.47641	13.82280	12.96643	13.92313	9.88856	6.65838	11.47243	11.01724	10.62405	5.73927	5.03173	4.56302	23.52402	18.96414	15.38232
7070	3.70867	3.72832	3.33026	14.47682	13.82506	12.96944	13.91782	9.86990	6.63943	11.47306	11.01656	10.62761	5.73094	5.02774	4.56601	23.49972	18.95911	15.37415
7230	3.71705	3.73675	3.34186	14.47652	13.82490	12.96423	13.93043	9.88093	6.64455	11.46500	11.01678	10.62906	5.71373	5.00858	4.54055	23.52216	18.96844	15.38512
7400	3.71007	3.74670	3.36878	14.48006	13.82644	12.96982	13.96795	9.90845	6.65787	11.47922	11.02226	10.62955	5.71430	5.00237	4.52874	23.52834	18.96466	15.38131
7560	3.69064	3.71895	3.33997	14.47745	13.82553	12.96762	13.93081	9.91170	6.68420	11.47360	11.01786	10.62847	5.74263	5.02252	4.53797	23.51413	18.96423	15.38122
7720	3.66877	3.69216	3.31188	14.47185	13.81905	12.96279	13.92445	9.90691	6.67939	11.47211	11.01907	10.62682	5.75971	5.04039	4.56648	23.51145	18.97039	15.38296
7890	3.69324	3.70840	3.31591	14.47460	13.82433	12.96903	13.90940	9.87161	6.64685	11.47408	11.02008	10.63008	5.74140	5.04178	4.58160	23.52443	18.95712	15.37631
8050	3.72811	3.74428	3.34273	14.47618	13.82357	12.96965	13.91337	9.86804	6.63139	11.47884	11.01988	10.62994	5.71359	5.01653	4.55949	23.53495	18.96562	15.37856
8220	3.73476	3.76249	3.36862	14.47384	13.82316	12.97135	13.92610	9.88068	6.63515	11.47515	11.01403	10.62462	5.71521	5.01072	4.54579	23.50331	18.97090	15.38387	36.92	6.1	0.00	-2.04	0.01731	0.01200	0.01519	0.01814	0.01876	0.01468	0.00548	0.01519	0.02008	0.01846	0.01281	0.01633	0.01709	0.01765	0.01379	0.00569	0.01601	0.02131
8380	3.69897	3.73102	3.34999	14.47659	13.82363	12.97099	13.95837	9.90774	6.67143	11.47859	11.02001	10.63180	5.72880	5.01281	4.53665	23.51627	18.96760	15.38117
8550	3.69156	3.72267	3.33872	14.47586	13.82500	12.97625	13.94469	9.89207	6.66344	11.48577	11.02463	10.63367	5.74337	5.03763	4.57391	23.51071	18.96656	15.38329
8710	3.71048	3.72267	3.32572	14.47756	13.82669	12.97149	13.89931	9.87090	6.64638	11.47872	11.01878	10.63132	5.73748	5.03144	4.56496	23.52060	18.97442	15.39035
8880	3.70917	3.72735	3.33333	14.47412	13.82188	12.97277	13.90905	9.88294	6.65608	11.48125	11.02027	10.63345	5.73419	5.02919	4.56877	23.52616	18.96517	15.38473
9040	3.71369	3.73539	3.34249	14.47462	13.82467	12.97551	13.93235	9.87717	6.63580	11.48681	11.02593	10.63697	5.71421	5.02331	4.56632	23.52740	18.96930	15.38535
9210	3.73409	3.75805	3.36149	14.47573	13.82581	12.97416	13.93245	9.87388	6.64009	11.48026	11.01986	10.63173	5.72109	5.01985	4.55675	23.52348	18.97021	15.39249
9370	3.71235	3.73488	3.34804	14.47906	13.82767	12.97655	13.95552	9.90128	6.66380	11.48154	11.01840	10.63233	5.71555	4.99370	4.50862	23.50948	18.97690	15.38440
9530	3.66184	3.70656	3.35049	14.47668	13.82752	12.97951	13.98617	9.95780	6.73152	11.47512	11.02665	10.64923	5.76551	5.03447	4.54323	23.52142	18.96604	15.38818
9700	3.63970	3.63609	3.24515	14.48051	13.83121	12.98269	13.89893	9.88347	6.69216	11.50389	11.03575	10.64737	5.83877	5.15749	4.70700	23.52781	18.99442	15.40372
9860	3.78041	3.74714	3.28781	14.49628	13.84376	12.98705	13.80710	9.75404	6.52723	11.51174	11.04788	10.65903	5.70213	5.07121	4.69324	23.50075	18.96638	15.38570	36.87	6.2	0.00	-2.04	0.01730	0.01200	0.01519	0.01814	0.01876	0.01468	0.00548	0.01519	0.02007	0.01846	0.01281	0.01633	0.01709	0.01764	0.01379	0.00569	0.01602	0.02131
10030	3.94181	3.95915	3.52567	14.48911	13.83386	12.96910	13.95182	9.81899	6.53147	11.44787	11.02277	10.63840	5.59481	4.90180	4.44756	23.52319	18.97915	15.39902
10190	3.76189	3.87546	3.57396	14.48604	13.83515	12.98186	14.20539	10.16092	6.85034	11.48340	11.04012	10.65618	5.68822	4.90795	4.39050	23.55271	18.98558	15.39722
10350	3.52856	3.55809	3.25807	14.48747	13.83513	12.98498	14.06122	10.10847	6.95548	11.49466	11.03833	10.64990	6.00896	5.22493	4.67039	23.52917	18.98158	15.39722
10520	3.58750	3.55584	3.16688	14.49070	13.84082	12.99058	13.81872	9.83474	6.70482	11.46344	11.01144	10.62518	5.93424	5.25317	4.81126	23.51186	18.96474	15.37858
10680	3.85757	3.79304	3.31141	14.48641	13.82826	12.96286	13.80888	9.75516	6.52461	11.45794	11.02186	10.63707	5.69199	5.05542	4.67250	23.51886	18.95415	15.37457
10850	3.91529	3.93963	3.52420	14.48618	13.84551	12.98731	13.99419	9.90369	6.61966	11.47493	11.01927	10.62641	5.64996	4.94618	4.49032	23.51722	18.97359	15.39115
11010	3.72211	3.77640	3.40494	14.48552	13.83876	12.98724	13.97884	9.91906	6.66199	11.50572	11.03258	10.62257	5.75550	5.02417	4.57312	23.54114	18.93973	15.35683
11170	3.79991	3.79885	3.40034	14.56307	13.85148	12.94493	13.93938	9.91528	6.67374	11.49583	11.10071	10.71320	5.65175	4.93718	4.49431	23.44129	18.93372	15.44012
11340	3.69950	3.75724	3.42501	14.51172	13.79395	12.93865	14.04806	10.05373	6.79508	11.53809	11.08192	10.64743	5.73714	5.00896	4.49730	23.53990	19.01188	15.44075
11500	3.58864	3.62550	3.27605	14.49085	13.85051	13.01142	13.96084	9.97977	6.77805	11.51125	11.03760	10.64759	5.86961	5.11904	4.59563	23.55581	19.00321	15.40571	36.92	6.1	0.00	-2.04	0.01729	0.01199	0.01517	0.01815	0.01877	0.01469	0.00547	0.01517	0.02005	0.01847	0.01281	0.01633	0.01707	0.01762	0.01377	0.00570	0.01603	0.02132
11670	3.63846	3.62917	3.22996	14.51132	13.85820	12.99387	13.88691	9.87357	6.70556	11.48483	11.04011	10.66011	5.83146	5.11291	4.64875	23.56739	18.98903	15.40601
11830	3.75621	3.75740	3.33313	14.52158	13.87401	12.97145	13.84700	9.81574	6.55811	11.54507	11.09111	10.63153	5.69897	5.04026	4.62713	23.54652	19.00926	15.43633
12000	3.87664	3.85311	3.42931	14.50945	13.83627	12.99121	13.95723	9.82804	6.55605	11.50119	11.02307	10.62692	5.64090	4.96197	4.50287	23.54033	18.97800	15.39318
12170	3.70802	3.78955	3.49386	14.44093	13.80699	12.98013	14.10167	10.10318	6.84212	11.35748	10.96999	10.61483	5.71438	4.94784	4.43061	23.47863	18.90244	15.32896
12340	3.60799	3.66193	3.37598	14.48447	13.80138	12.87810	14.16339	10.20082	6.94804	11.36683	11.00633	10.54586	5.89408	5.11047	4.56117	23.39249	18.88457	15.32832
12500	3.65910	3.62046	3.25985	14.41982	13.74335	12.88890	13.98335	10.00371	6.82375	11.30631	10.95037	10.52847	5.90171	5.19005	4.69962	23.39026	18.86077	15.29823
12660	3.81785	3.74951	3.36698	14.41356	13.74083	12.86459	13.99701	9.92094	6.68356	11.27338	10.94919	10.49974	5.80491	5.13088	4.67949	23.36469	18.85400	15.28889
12820	3.84353	3.75722	3.35567	14.41926	13.75323	12.88386	13.96323	9.89961	6.67891	11.28866	10.95913	10.53184	5.80105	5.10289	4.65374	23.39859	18.89141	15.35217
12980	3.75618	3.70635	3.27202	14.46512	13.80655	12.95307	13.86632	9.80233	6.58943	11.45657	11.00034	10.60675	5.74960	5.06916	4.62135	23.53909	18.99042	15.38064
13150	3.76258	3.71388	3.28423	14.49856	13.85540	12.99067	13.78864	9.72568	6.49626	11.47783	11.05510	10.67833	5.66468	5.02978	4.62327	23.57869	19.04558	15.47855	36.92	6.0	0.00	-2.04	0.01728	0.01199	0.01517	0.01816	0.01878	0.01469	0.00547	0.01516	0.02004	0.01847	0.01282	0.01634	0.01706	0.01762	0.01377	0.00570	0.01603	0.02132
13310	3.84903	3.88988	3.52132	14.51836	13.85854	13.13437	13.89241	9.83133	6.56555	11.52686	11.13007	10.74945	5.62649	4.92439	4.48011	23.58076	19.03104	15.50128
13490	3.72309	3.78036	3.43135	14.56371	13.87209	13.01189	14.04224	10.00418	6.71990	11.58245	11.08696	10.66455	5.67110	4.98939	4.48116	23.47488	18.97535	15.41070
13660	3.67522	3.67467	3.41412	14.45167	13.75541	12.93836	14.13772	10.11652	6.86666	11.31229	10.97394	10.49197	5.88149	5.16466	4.67621	23.42991	18.89896	15.32470
13820	3.86076	3.79379	3.38954	14.42716	13.78152	12.93174	13.97749	9.92307	6.67796	11.30267	10.95666	10.49756	5.78095	5.11921	4.69800	23.40322	18.87647	15.30791
13970	3.96794	3.90877	3.53240	14.42446	13.78053	12.92416	14.07303	9.95433	6.66077	11.30147	10.96165	10.54510	5.69014	4.98461	4.49650	23.44154	18.90108	15.32513
14130	3.73188	3.74138	3.43332	14.47749	13.81938	12.96866	14.07313	10.04464	6.77176	11.43021	11.03352	10.63733	5.73311	4.98049	4.43085	23.56855	19.02620	15.41523
14290	3.56085	3.57249	3.22322	14.50542	13.87303	13.04766	13.93881	9.83843	7.00460	11.67509	11.45063	10.76739	6.01529	5.24540	4.76255	23.79783	19.45250	15.37706
14450	3.77515	3.84823	3.52965	14.59031	14.00600	13.15942	14.19395	10.24772	7.00975	11.41344	11.11965	10.81648	5.88713	5.11106	4.60296	23.64620	19.00255	15.47513
14610	3.63116	3.65432	3.28543	14.62619	14.01671	13.07920	13.99335	10.05078	6.93715	11.57891	11.15203	10.75659	6.18614	5.46910	5.01776	23.60751	19.05280	15.51312
14780	3.88963	3.73421	3.24836	14.61770	13.97089	13.09138	13.95197	9.72746	6.54993	11.63114	11.17060	10.76811	5.96043	5.42536	5.16432	23.61163	19.05893	15.51217	36.98	6.1	0.00	-2.04	0.01729	0.01199	0.01517	0.01815	0.01877	0.01469	0.00547	0.01517	0.02005	0.01847	0.01281	0.01633	0.01707	0.01762	0.01377	0.00570	0.01603	0.02132
14940	4.33766	4.25009	3.68891	14.63615	13.95190	13.06969	13.85377	9.81237	6.59141	11.63767	11.16937	10.75840	5.59722	4.99555	4.69921	23.65411	19.08251	15.50696
15110	4.19014	4.33175	3.98584	14.59051	13.94293	13.08987	14.35651	10.12453	6.67100	11.63379	11.15225	10.75839	5.70711	5.04819	4.39163	23.65452	19.11744	15.52531
15270	3.80135	4.03756	3.83614	14.58377	13.94650	13.11145	14.51693	10.46335	7.10891	11.65416	11.13695	10.73959	5.80817	4.95244	4.45060	23.66852	19.10622	15.50269
15430	3.56518	3.61146	3.38009	14.59752	13.96259	13.09808	14.27479	10.38193	7.22374	11.60427	11.14641	10.77414	6.15229	5.27190	4.65243	23.66079	19.09313	15.50369
15600	3.57685	3.60671	3.20537	14.61329	13.96866	13.09569	13.96416	10.09617	7.01790	11.60120	11.14730	10.77067	6.21792	5.45803	4.95005	23.66141	19.08738	15.49708
15760	3.81214	3.71428	3.25189	14.60140	13.95902	13.09451	13.85547	9.80643	6.64124	11.60709	11.13780	10.75764	5.91885	5.29548	4.93695	23.65223	19.08409	15.49361
15930	4.11909	4.11585	3.65242	14.59507	13.95951	13.09564	13.97646	9.86211	6.59752	11.60195	11.13722	10.75914	5.66391	4.98479	4.58338	23.65870	19.09181	15.50447
16090	3.90787	4.01468	3.68767	14.60156	13.95347	13.08781	14.24848	10.19393	6.89199	11.61145	11.14468	10.75749	5.77549	5.00678	4.51126	23.65390	19.08975	15.50490
16260	3.67558	3.74974	3.43720	14.59452	13.95281	13.09459	14.14802	10.14617	6.93390	11.61377	11.13631	10.75190	5.96180	5.21318	4.72820	23.65807	19.09186	15.50224
16420	3.78999	3.78553	3.38151	14.59000	13.94974	13.09609	13.98968	9.95235	6.75211	11.61494	11.13684	10.75153	5.87207	5.18136	4.75377	23.65922	19.08223	15.49712	36.92	6.1	0.00	-2.04	0.01729	0.01199	0.01518	0.01815	0.01877	0.01468	0.00547	0.01518	0.02006	0.01846	0.01281	0.01633	0.01707	0.01763	0.01378	0.00570	0.01602	0.02131
16590	3.92281	3.95055	3.55364	14.58384	13.94473	13.09341	14.04810	9.97022	6.69779	11.62304	11.14307	10.75535	5.73868	5.04698	4.61998	23.64837	19.08920	15.50074
16750	3.89224	3.98316	3.64681	14.58287	13.94277	13.09329	14.17569	10.12077	6.80546	11.61945	11.14113	10.75274	5.72386	4.97780	4.48710	23.65233	19.09144	15.50888
16920	3.72391	3.84561	3.57304	14.58425	13.93890	13.08967	14.29881	10.30172	7.04809	11.62935	11.14688	10.75628	5.91607	5.08565	4.52687	23.64732	19.09087	15.50152
17080	3.60802	3.63746	3.31665	14.58340	13.94273	13.09168	14.08505	10.17736	7.03313	11.62083	11.14703	10.76912	6.09953	5.32335	4.81028	23.64732	19.08490	15.50423
17250	3.76773	3.72403	3.30117	14.58528	13.93575	13.08276	13.91018	9.91011	6.74464	11.61557	11.13732	10.75398	5.93936	5.26135	4.84504	23.64274	19.09689	15.50753
17410	3.96140	3.95276	3.51744	14.58762	13.94543	13.09216	13.99914	9.91920	6.68443	11.60699	11.13185	10.75157	5.79328	5.11579	4.69257	23.65859	19.08819	15.50083
17570	3.88031	3.90687	3.50643	14.59580	13.95550	13.09791	14.04397	10.02412	6.80925	11.61512	11.13902	10.75237	5.90783	5.19750	4.74402	23.64190	19.08780	15.50701
17740	3.83093	3.81631	3.38593	14.59340	13.94547	13.08821	13.95803	9.91079	6.71479	11.61884	11.13775	10.74796	5.90513	5.24915	4.86540	23.62961	19.08780	15.50558
17900	4.02660	4.01405	3.55540	14.59303	13.95092	13.09467	13.95299	9.86349	6.60011	11.61713	11.13813	10.75392	5.70250	5.05811	4.68815	23.66925	19.08692	15.49467
18070	4.01934	4.10107	3.72257	14.58805	13.95777	13.10368	14.16865	10.05906	6.74521	11.61746	11.13899	10.76019	5.71949	5.00265	4.54372	23.64669	19.07854	15.49155	36.92	6.1	0.00	-2.04	0.01730	0.01200	0.01518	0.01815	0.01877	0.01468	0.00548	0.01518	0.02006	0.01846	0.01281	0.01633	0.01708	0.01764	0.01378	0.00569	0.01602	0.02131
18230	3.80595	3.90277	3.57996	14.59069	13.94762	13.09245	14.17662	10.12644	6.85657	11.62457	11.13999	10.76042	5.83493	5.09592	4.62384	23.62502	19.08205	15.49186
18400	3.79052	3.84092	3.47925	14.58902	13.95284	13.10258	14.09082	10.05424	6.82402	11.61941	11.13997	10.76031	5.86826	5.13816	4.66860	23.64356	19.08679	15.50029
18560	3.79787	3.84080	3.48442	14.58979	13.94655	13.09154	14.08089	10.09848	6.87099	11.61543	11.13941	10.76234	5.88043	5.11750	4.62055	23.64419	19.08293	15.49450
18720	3.72646	3.76603	3.41319	14.59167	13.95233	13.09343	14.06405	10.10326	6.92271	11.61689	11.14408	10.76482	5.99530	5.24966	4.76901	23.64857	19.07876	15.49556
18890	3.80054	3.77725	3.35218	14.58654	13.94142	13.08826	13.91363	9.89825	6.71015	11.62050	11.13712	10.75553	5.89065	5.22904	4.83240	23.64648	19.09167	15.50048
19050	4.00189	4.00931	3.58266	14.59273	13.95026	13.09704	14.03639	9.93806	6.66605	11.61887	11.13981	10.76060	5.70957	5.01952	4.60049	23.64544	19.08807	15.50467
19220	3.90445	4.00859	3.68008	14.58748	13.94235	13.09324	14.22566	10.16236	6.85009	11.63540	11.14820	10.75694	5.76108	5.01231	4.52841	23.64565	19.09369	15.50543
19380	3.74211	3.83606	3.51312	14.57973	13.94406	13.10421	14.12163	10.11308	6.87035	11.63086	11.13420	10.74958	5.87102	5.12762	4.64862	23.65379	19.09202	15.49769
19540	3.79720	3.84812	3.49662	14.58205	13.94368	13.09393	14.09535	10.06729	6.81401	11.63036	11.14584	10.76521	5.81159	5.07387	4.59557	23.64669	19.09409	15.50829
19710	3.77603	3.84977	3.52037	14.58621	13.94187	13.09030	14.18376	10.16874	6.93888	11.62864	11.14560	10.76392	5.90406	5.12604	4.60538	23.64450	19.09696	15.50783	36.92	6.1	0.00	-2.04	0.01730	0.01200	0.01518	0.01814	0.01876	0.01468	0.00548	0.01518	0.02007	0.01846	0.01281	0.01633	0.01708	0.01764	0.01378	0.00569	0.01602	0.02131
19870	3.68429	3.71208	3.36109	14.59098	13.94760	13.09011	14.07450	10.10887	6.95698	11.61435	11.14079	10.76088	6.06049	5.30158	4.79336	23.67019	19.10144	15.51439
20040	3.75187	3.71792	3.30407	14.59660	13.95596	13.10453	13.92055	9.92027	6.76533	11.61972	11.14001	10.75995	5.99403	5.33810	4.94123	23.64325	19.09445	15.51013
20200	4.02910	3.97231	3.46656	14.60572	13.96992	13.11199	13.88601	9.81036	6.57601	11.63324	11.15172	10.77212	5.78225	5.18166	4.85172	23.65097	19.08277	15.50811
20370	4.12732	4.15530	3.70996	14.61716	13.97060	13.10551	14.07729	9.92636	6.62354	11.64247	11.16348	10.77548	5.67731	4.99347	4.58066	23.66224	19.09485	15.51328
20530	3.93276	4.04929	3.71468	14.60367	13.96114	13.10949	14.26230	10.16650	6.85966	11.64491	11.16102	10.77445	5.76027	5.00848	4.51741	23.65618	19.10751	15.52127
20700	3.71115	3.80105	3.49869	14.60795	13.96428	13.11026	14.17092	10.19741	6.97356	11.64452	11.16220	10.77765	5.95308	5.17209	4.65380	23.65472	19.11165	15.52073
20860	3.71254	3.73258	3.36266	14.60988	13.96800	13.11360	14.01539	10.05169	6.87848	11.64333	11.16415	10.77982	5.98096	5.24835	4.77708	23.68463	19.11447	15.52604
21020	3.83181	3.82185	3.40285	14.60792	13.96149	13.10688	13.96024	9.94598	6.74827	11.63931	11.15913	10.76908	5.88865	5.20164	4.77030	23.66099	19.11517	15.52804
21190	3.89593	3.90587	3.49472	14.60958	13.96812	13.11369	14.04577	9.98410	6.75952	11.64190	11.15647	10.76823	5.84971	5.14392	4.69300	23.68400	19.11438	15.52873
21350	3.82098	3.83574	3.45068	14.61303	13.96569	13.11118	14.03784	10.03213	6.83164	11.64052	11.15533	10.77003	5.91087	5.18860	4.73062	23.67761	19.11887	15.52766	36.92	6.1	0.00	-2.04	0.01730	0.01200	0.01518	0.01814	0.01876	0.01468	0.00548	0.01519	0.02007	0.01846	0.01281	0.01632	0.01708	0.01764	0.01378	0.00569	0.01602	0.02131
21520	3.84964	3.87249	3.48046	14.61245	13.97221	13.11768	14.02433	9.96749	6.71831	11.66135	11.17736	10.78692	5.79417	5.11337	4.69199	23.67866	19.11266	15.52201
21680	3.92345	3.97854	3.60058	14.60714	13.97576	13.13061	14.09929	10.05148	6.79191	11.65377	11.16734	10.78687	5.81176	5.08840	4.61653	23.68389	19.11667	15.52555
21850	3.76386	3.80361	3.44305	14.61953	13.97332	13.11380	14.09901	10.10574	6.91467	11.64923	11.16754	10.77937	5.99248	5.25212	4.75731	23.68850	19.12711	15.53643
22010	3.77656	3.75343	3.34141	14.61889	13.97595	13.12227	13.95515	9.96142	6.80109	11.64843	11.16178	10.77757	5.96636	5.27297	4.83426	23.67322	19.12416	15.52646
22170	3.92048	3.90436	3.47504	14.61337	13.98087	13.12708	13.96818	9.92159	6.69542	11.64983	11.16794	10.78712	5.80958	5.12165	4.69115	23.67866	19.11785	15.52866
22340	3.88190	3.94978	3.60227	14.61781	13.98021	13.12213	14.18426	10.14588	6.85702	11.64047	11.17589	10.81784	5.76540	5.00450	4.50829	23.68704	19.11367	15.54253
22500	3.70969	3.81337	3.53209	14.63387	13.96815	13.10578	14.24751	10.25329	7.00888	11.69279	11.20917	10.80562	5.92391	5.12333	4.59376	23.66151	19.12402	15.54845
22660	3.68096	3.72382	3.37674	14.61236	13.96439	13.12155	14.05146	10.09727	6.92042	11.67921	11.18383	10.78201	6.00351	5.25781	4.77573	23.66945	19.12107	15.53425
22830	3.79675	3.77334	3.35984	14.61555	13.97529	13.12018	13.96809	9.95141	6.77055	11.65065	11.16856	10.78341	5.92119	5.22153	4.77962	23.67657	19.11640	15.52709
22990	3.89403	3.90332	3.50440	14.61824	13.98007	13.12320	14.03816	9.99538	6.76098	11.64948	11.17157	10.78780	5.82351	5.10912	4.65178	23.66402	19.10866	15.52459	36.92	6.1	0.00	-2.04	0.01730	0.01200	0.01519	0.01814	0.01876	0.01468	0.00548	0.01519	0.02007	0.01846	0.01281	0.01632	0.01709	0.01764	0.01379	0.00569	0.01602	0.02131
23160	3.81597	3.85663	3.48691	14.61888	13.97655	13.11780	14.08843	10.06904	6.85510	11.65906	11.17333	10.78393	5.91003	5.18446	4.71219	23.65670	19.11046	15.52574
23320	3.79807	3.79789	3.38643	14.61732	13.97984	13.12423	13.93761	9.94121	6.76538	11.65926	11.17641	10.79013	5.97062	5.30999	4.91152	23.66883	19.11060	15.53431
23480	3.99650	3.94438	3.46173	14.63306	13.98114	13.11213	13.90653	9.82583	6.59104	11.65440	11.17813	10.78757	5.77869	5.16281	4.82169	23.65357	19.11689	15.53858
23650	4.11052	4.15639	3.73405	14.62799	13.98439	13.12649	14.09122	9.94844	6.62897	11.65841	11.17518	10.78273	5.66929	4.98099	4.57540	23.66360	19.11104	15.52565
23810	3.92836	4.03648	3.69682	14.62700	13.99825	13.14581	14.20541	10.13561	6.83946	11.66121	11.17496	10.79571	5.79395	5.05018	4.56950	23.66632	19.10844	15.52189
23980	3.75842	3.83201	3.50606	14.62521	13.98371	13.12332	14.13672	10.11872	6.86879	11.67484	11.18831	10.80501	5.84950	5.09860	4.62400	23.68410	19.12416	15.53780
24140	3.81072	3.88202	3.54850	14.61911	13.97219	13.12039	14.14680	10.10330	6.82675	11.69602	11.20024	10.80355	5.79148	5.04737	4.56284	23.69689	19.13656	15.54917
24310	3.76333	3.85095	3.54487	14.61780	13.97351	13.12685	14.23079	10.23498	6.99082	11.67348	11.18596	10.80282	5.89647	5.08639	4.53997	23.69353	19.13206	15.54675
24470	3.64206	3.69317	3.38415	14.63776	13.99079	13.12207	14.15979	10.22570	7.05405	11.66692	11.19585	10.81295	6.06519	5.26573	4.72046	23.69605	19.12791	15.54653
24640	3.68183	3.66987	3.27881	14.63941	13.99106	13.12796	13.96060	10.03315	6.91715	11.66812	11.18439	10.79863	6.09062	5.35540	4.86842	23.69616	19.13359	15.54145	36.92	6.0	0.00	-2.04	0.01730	0.01200	0.01519	0.01814	0.01876	0.01468	0.00548	0.01519	0.02007	0.01846	0.01280	0.01632	0.01709	0.01764	0.01379	0.00569	0.01602	0.02131
24800	3.82899	3.78058	3.34513	14.63745	14.00227	13.14249	13.94501	9.96027	6.79624	11.65791	11.17895	10.81037	5.94043	5.21712	4.73998	23.72851	19.14128	15.53825
24970	3.80595	3.81882	3.44344	14.64494	14.01308	13.13806	14.05118	10.09263	6.90485	11.64478	11.18642	10.82633	5.96687	5.20932	4.69976	23.70833	19.13046	15.54025
25130	3.71679	3.70415	3.30576	14.64402	14.00111	13.13529	13.95765	10.01304	6.88792	11.66487	11.18786	10.80355	6.10385	5.40587	4.95441	23.69720	19.13743	15.55342
25300	3.92938	3.85378	3.38028	14.64206	13.99582	13.13219	13.90076	9.86131	6.63417	11.66857	11.19314	10.82161	5.75671	5.09284	4.70210	23.70686	19.13099	15.55370
25460	4.04841	4.18610	3.87603	14.65962	13.98443	13.11163	14.35217	10.17471	6.74174	11.75619	11.27078	10.83825	5.68283	5.01702	4.40051	23.66537	19.16435	15.61396
25630	3.77065	3.98035	3.78455	14.61360	13.94845	13.14225	14.53515	10.48805	7.15174	11.77563	11.22713	10.77759	5.84400	4.97456	4.46193	23.71547	19.17538	15.59023
25790	3.60387	3.64817	3.38903	14.62283	13.99587	13.15586	14.23270	10.33918	7.17376	11.70507	11.19170	10.80227	6.16365	5.32897	4.74922	23.71589	19.15307	15.55913
25950	3.63789	3.63212	3.24715	14.65013	14.01142	13.15275	13.93144	10.02819	6.93348	11.68201	11.19735	10.82739	6.13677	5.40060	4.91993	23.72977	19.14773	15.55257
26120	3.87966	3.81451	3.35220	14.65572	14.01113	13.14439	13.87083	9.84716	6.66770	11.69115	11.20725	10.82037	5.93764	5.31750	4.95538	23.69532	19.14061	15.56420
26280	4.06723	4.00429	3.49609	14.66654	14.01825	13.15051	13.92311	9.82776	6.59719	11.70487	11.21659	10.82231	5.79907	5.19644	4.86844	23.69448	19.14056	15.57582	36.92	6.2	0.00	-2.04	0.01730	0.01200	0.01519	0.01814	0.01876	0.01468	0.00548	0.01519	0.02007	0.01846	0.01280	0.01632	0.01709	0.01764	0.01379	0.00569	0.01602	0.02131
26450	4.10391	4.10384	3.63872	14.67338	14.01868	13.14605	13.99176	9.88393	6.61916	11.70797	11.21540	10.81792	5.72741	5.07800	4.69531	23.69972	19.15461	15.58345
26610	3.97593	4.03648	3.65852	14.66818	14.01146	13.15224	14.14705	10.05632	6.77132	11.70899	11.20953	10.81458	5.75770	5.03379	4.58000	23.71421	19.15669	15.56693
26770	3.81585	3.90308	3.57692	14.65880	14.01993	13.16375	14.17616	10.14230	6.88679	11.71231	11.21933	10.83497	5.85129	5.10196	4.61866	23.72156	19.16116	15.57309
26940	3.78290	3.83137	3.48515	14.65769	14.01337	13.16305	14.08214	10.07425	6.83966	11.71859	11.21745	10.82559	5.87341	5.14611	4.68183	23.72703	19.17178	15.57753
27100	3.82198	3.85092	3.47841	14.66021	14.02265	13.16396	14.08590	10.06114	6.84612	11.70288	11.21119	10.82962	5.90335	5.17019	4.69411	23.72199	19.17072	15.58061
27270	3.79379	3.80890	3.42623	14.66721	14.02683	13.16770	14.03805	10.02384	6.82715	11.70985	11.22027	10.83540	5.93216	5.22554	4.78554	23.73229	19.17307	15.58339
27430	3.89439	3.88695	3.46604	14.67426	14.03082	13.17395	13.98251	9.93623	6.71410	11.71535	11.22142	10.83392	5.83533	5.16376	4.75958	23.71862	19.17183	15.58400
27590	3.96372	3.99315	3.58656	14.68086	14.04108	13.18480	14.06213	9.98443	6.71807	11.72233	11.22566	10.84137	5.77935	5.08829	4.65841	23.73461	19.17812	15.58967
27760	3.89534	3.95729	3.59413	14.67852	14.03927	13.17951	14.12440	10.08611	6.81940	11.71923	11.22935	10.84490	5.80860	5.07020	4.59526	23.73103	19.17697	15.59113
27920	3.77684	3.84478	3.51400	14.67810	14.03236	13.17421	14.16382	10.15218	6.92549	11.72276	11.23229	10.85020	5.90906	5.14152	4.64135	23.73766	19.18145	15.58941	36.92	6.0	0.00	-2.04	0.01731	0.01200	0.01519	0.01814	0.01876	0.01468	0.00548	0.01519	0.02007	0.01846	0.01280	0.01632	0.01709	0.01765	0.01379	0.00569	0.01602	0.02131
28090	3.74571	3.77997	3.42988	14.67794	14.03203	13.17725	14.07252	10.09373	6.89028	11.72675	11.24090	10.85852	5.94292	5.20157	4.72740	23.73745	19.18584	15.59526
28250	3.81296	3.81593	3.41851	14.68037	14.03867	13.18119	14.00199	10.00483	6.81342	11.71389	11.22402	10.84017	5.93452	5.22707	4.77805	23.75073	19.19258	15.60251
28420	3.86729	3.86175	3.45421	14.68718	14.04516	13.18404	13.99970	9.98016	6.76311	11.72023	11.22815	10.83962	5.87759	5.18468	4.75045	23.74293	19.19800	15.60420
28580	3.89476	3.91177	3.51372	14.68782	14.04887	13.19338	14.05359	10.00240	6.77697	11.72050	11.22743	10.83989	5.85402	5.15008	4.70567	23.73135	19.18579	15.59495
28740	3.85666	3.88241	3.49064	14.68650	14.05135	13.18905	14.05340	10.01560	6.79673	11.72905	11.23330	10.84364	5.88608	5.17789	4.73369	23.73830	19.18437	15.59653
28910	3.86260	3.87519	3.47567	14.68574	14.04246	13.18578	14.00648	9.99408	6.77207	11.73279	11.23561	10.84838	5.86879	5.17479	4.74456	23.73156	19.18242	15.59222
29070	3.90108	3.91606	3.51446	14.68171	14.04089	13.18491	14.03853	9.98594	6.75065	11.72937	11.23824	10.85013	5.83926	5.14456	4.71271	23.75706	19.19174	15.60424
29240	3.88997	3.92488	3.54151	14.68910	14.04710	13.18581	14.06522	10.03848	6.79314	11.73021	11.24074	10.85601	5.82588	5.10791	4.65579	23.75221	19.19107	15.59809
29400	3.83254	3.88930	3.52671	14.68738	14.04929	13.19367	14.10161	10.09114	6.85659	11.73264	11.24414	10.85556	5.88513	5.15131	4.67660	23.74757	19.19427	15.60494
29570	3.78748	3.80796	3.43368	14.69238	14.05283	13.19255	14.04682	10.05057	6.85653	11.73332	11.24178	10.85267	5.95402	5.23076	4.76238	23.75420	19.19970	15.60859	36.92	6.1	0.00	-2.04	0.01731	0.01200	0.01519	0.01814	0.01876	0.01467	0.00548	0.01519	0.02008	0.01846	0.01280	0.01632	0.01709	0.01765	0.01379	0.00569	0.01602	0.02130
29730	3.83121	3.82258	3.41947	14.69092	14.05354	13.19434	14.01502	9.98366	6.78523	11.73424	11.24313	10.85673	5.90934	5.20907	4.77476	23.74135	19.19260	15.59999
29890	3.91082	3.92577	3.52346	14.68928	14.04907	13.18884	14.01875	9.97735	6.72720	11.73884	11.24986	10.86116	5.78396	5.08845	4.65493	23.73419	19.19024	15.60460
30060	3.88193	3.95678	3.61335	14.68942	14.05116	13.19395	14.18222	10.14868	6.87341	11.74652	11.25244	10.86333	5.82263	5.06283	4.56441	23.73713	19.19419	15.60387
30220	3.71181	3.77829	3.45508	14.69002	14.05664	13.20015	14.15648	10.16586	6.96285	11.74446	11.25562	10.87631	5.98432	5.21935	4.72037	23.75568	19.19903	15.61003
30390	3.78043	3.78781	3.39638	14.69584	14.05383	13.19453	14.02918	10.01214	6.81970	11.73946	11.25330	10.86777	5.91570	5.19508	4.73686	23.75821	19.20654	15.61743
30550	3.84948	3.87292	3.48725	14.69799	14.06148	13.20252	14.07766	10.05500	6.84406	11.73922	11.25143	10.86277	5.91374	5.18079	4.69750	23.74935	19.20801	15.62199
30710	3.75185	3.74810	3.35605	14.70548	14.06716	13.21308	14.01531	10.07570	6.94456	11.75200	11.24772	10.85011	6.11252	5.37161	4.87073	23.74956	19.23049	15.63236
30880	3.78732	3.72670	3.28514	14.69271	14.07054	13.22361	13.88261	9.88234	6.74497	11.74565	11.24234	10.85978	6.03680	5.40604	5.03935	23.76687	19.20566	15.61251
31040	4.11528	4.02977	3.48990	14.70820	14.07886	13.21774	13.87280	9.81088	6.55720	11.76160	11.26725	10.88521	5.78153	5.21415	4.92461	23.75463	19.19264	15.61504
31210	4.22600	4.23548	3.75300	14.73258	14.08943	13.20443	14.03992	9.87944	6.58572	11.75293	11.27888	10.88952	5.67234	5.01030	4.63401	23.75463	19.21057	15.63702	36.92	6.0	0.00	-2.04	0.01731	0.01200	0.01519	0.01814	0.01876	0.01467	0.00548	0.01519	0.02008	0.01846	0.01280	0.01632	0.01709	0.01765	0.01379	0.00569	0.01601	0.02130
31370	4.00065	4.11147	3.77133	14.71596	14.06370	13.20477	14.26317	10.16689	6.83898	11.76412	11.26814	10.87430	5.73201	4.99062	4.51306	23.76075	19.21226	15.62225
31540	3.75828	3.87241	3.57485	14.70162	14.07019	13.22266	14.22355	10.19846	6.94185	11.77570	11.26534	10.87169	5.91778	5.16358	4.67553	23.75357	19.20715	15.61343
31700	3.77158	3.78911	3.40391	14.70732	14.08497	13.22745	14.01359	9.99972	6.81907	11.75530	11.26329	10.88796	5.95437	5.25753	4.82102	23.75147	19.19933	15.61834
31870	3.91602	3.90890	3.48892	14.70983	14.06827	13.20729	14.01981	9.97045	6.73123	11.76673	11.27012	10.88311	5.80556	5.10510	4.66343	23.77406	19.22076	15.62006
32030	3.87444	3.94094	3.60138	14.70563	14.07544	13.21381	14.18087	10.17552	6.90648	11.75879	11.27278	10.89590	5.84096	5.06608	4.55724	23.77089	19.21271	15.62722
32200	3.70715	3.77363	3.45238	14.72000	14.07795	13.21194	14.14894	10.17552	6.97537	11.77497	11.28179	10.89088	6.00435	5.24090	4.74138	23.77279	19.21204	15.62831
32360	3.77169	3.76430	3.36068	14.70637	14.07195	13.22145	13.95002	9.96747	6.78868	11.77964	11.27290	10.88465	5.95769	5.28059	4.86650	23.76856	19.22090	15.62706
32520	3.98192	3.96359	3.51012	14.70969	14.07734	13.22264	13.94328	9.89104	6.64787	11.76970	11.27527	10.88977	5.79251	5.14661	4.77698	23.76328	19.21823	15.62787
32690	4.02507	4.05976	3.64433	14.71952	14.08698	13.22317	14.07545	9.97542	6.70198	11.76932	11.27640	10.89381	5.75792	5.07152	4.65087	23.78103	19.21796	15.63155
32860	3.90762	3.97767	3.61344	14.72136	14.08301	13.21758	14.14803	10.09225	6.82376	11.77124	11.27542	10.88832	5.81586	5.08268	4.60855	23.78273	19.22694	15.63676	36.92	6.2	0.00	-2.04	0.01731	0.01200	0.01519	0.01814	0.01876	0.01467	0.00548	0.01519	0.02008	0.01846	0.01280	0.01632	0.01709	0.01765	0.01379	0.00569	0.01601	0.02130
33020	3.77717	3.83353	3.48965	14.71427	14.07983	13.22295	14.12799	10.13916	6.92725	11.77087	11.27309	10.88800	5.96160	5.20622	4.71125	23.78485	19.22827	15.63733
33180	3.76961	3.77046	3.37632	14.72233	14.08891	13.22902	13.97605	9.99893	6.82829	11.77670	11.27795	10.89557	5.98462	5.28728	4.84827	23.80200	19.23429	15.63854
33350	3.92772	3.90195	3.46442	14.72235	14.08768	13.23577	13.97490	9.90552	6.67530	11.78340	11.28592	10.90257	5.80184	5.14032	4.74838	23.81175	19.24196	15.64355
33510	4.01756	4.08178	3.70648	14.72170	14.08671	13.23288	14.16685	10.07283	6.75452	11.77665	11.28443	10.90210	5.72199	4.99415	4.51826	23.80454	19.24125	15.64976
33680	3.76672	3.87967	3.59458	14.72573	14.08770	13.22970	14.29259	10.30418	7.05823	11.77787	11.28779	10.90667	5.94399	5.11871	4.56689	23.78844	19.23634	15.64842
33840	3.64895	3.67467	3.33373	14.72947	14.08897	13.22974	14.06599	10.16471	7.01498	11.77764	11.28628	10.90645	6.10179	5.33158	4.82767	23.80136	19.24495	15.64939
34000	3.79190	3.75776	3.34428	14.72954	14.09142	13.22972	13.93175	9.94811	6.77740	11.77365	11.28660	10.90462	5.93469	5.23628	4.79234	23.80582	19.24134	15.65300
34170	3.89366	3.89933	3.49494	14.73231	14.09596	13.24051	14.03653	10.01482	6.79796	11.78401	11.28488	10.90277	5.88005	5.16207	4.69654	23.79395	19.24508	15.65157
34330	3.81311	3.83461	3.45278	14.73063	14.09745	13.23912	14.02197	10.02056	6.81839	11.78634	11.29100	10.91077	5.93410	5.23740	4.80009	23.79395	19.23951	15.64970
34500	3.91001	3.89856	3.46984	14.73703	14.10501	13.24545	13.96328	9.91543	6.68233	11.79657	11.29908	10.92049	5.83094	5.18228	4.80886	23.80921	19.25237	15.65882	36.92	5.9	0.00	-2.04	0.01731	0.01200	0.01519	0.01814	0.01876	0.01467	0.00548	0.01519	0.02008	0.01845	0.01280	0.01632	0.01709	0.01765	0.01379	0.00569	0.01601	0.02130
34660	4.04130	4.06682	3.63934	14.74853	14.12127	13.25782	14.06146	9.95348	6.68262	11.79606	11.30603	10.92502	5.74764	5.06508	4.64637	23.81154	19.25335	15.66813
34830	3.89848	3.97203	3.61793	14.75044	14.11097	13.25292	14.15131	10.10817	6.84129	11.80168	11.30272	10.91041	5.82366	5.08579	4.61238	23.81027	19.26135	15.66877
34990	3.78121	3.83780	3.50009	14.74569	14.11118	13.24947	14.12527	10.14080	6.92624	11.79467	11.29666	10.91507	5.93352	5.16505	4.66579	23.80242	19.25054	15.65605
35150	3.74985	3.77386	3.40357	14.74096	14.11181	13.25353	14.04620	10.04043	6.84428	11.80096	11.30548	10.92412	5.96243	5.25982	4.81846	23.80369	19.25290	15.66015
35320	3.90501	3.88991	3.45583	14.74327	14.11220	13.25304	13.95139	9.92517	6.71120	11.79529	11.29849	10.91546	5.84923	5.16961	4.74887	23.80539	19.25407	15.66394
35480	3.92376	3.95673	3.56628	14.74499	14.10619	13.24565	14.09013	10.05497	6.80447	11.79320	11.29754	10.91175	5.82518	5.08990	4.61183	23.80730	19.26940	15.66495
35640	3.77051	3.82480	3.48499	14.74683	14.11044	13.25051	14.13794	10.13206	6.93190	11.78982	11.29756	10.91537	5.98349	5.23497	4.74732	23.79013	19.24848	15.66211
35810	3.77271	3.74427	3.32783	14.75448	14.11401	13.25543	13.92245	9.94565	6.79501	11.80594	11.30548	10.92018	6.03363	5.36786	4.96640	23.80666	19.26332	15.67837
35970	4.00856	3.94784	3.46313	14.74536	14.10440	13.24976	13.91743	9.86215	6.63805	11.81282	11.30243	10.91349	5.79787	5.13867	4.74441	23.81069	19.26815	15.66868
36130	3.96674	4.01089	3.62615	14.73900	14.11012	13.25707	14.13295	10.06761	6.79009	11.80183	11.30405	10.92832	5.80222	5.08186	4.62571	23.82629	19.26167	15.67317	36.92	6.1	0.00	-2.04	0.01731	0.01200	0.01519	0.01814	0.01876	0.01467	0.00548	0.01519	0.02008	0.01845	0.01280	0.01632	0.01709	0.01765	0.01379	0.00569	0.01601	0.02130
36300	3.83243	3.88717	3.52259	14.74938	14.11484	13.25505	14.07438	10.03834	6.80143	11.80294	11.30711	10.92434	5.86426	5.15735	4.71366	23.81928	19.26203	15.67218
36460	3.87343	3.90048	3.51017	14.75880	14.12447	13.26740	14.05074	10.01985	6.78373	11.81115	11.31026	10.92540	5.85906	5.15761	4.71747	23.79553	19.26033	15.67171
36620	3.88534	3.91561	3.52683	14.75085	14.12218	13.27057	14.05141	9.98359	6.74264	11.81869	11.31021	10.92772	5.81550	5.12008	4.68216	23.80464	19.26185	15.67010
36790	3.88096	3.94295	3.59561	14.75269	14.11377	13.25571	14.17600	10.14639	6.87749	11.81402	11.32046	10.94826	5.80050	5.02638	4.52103	23.84458	19.27178	15.67551
36950	3.70176	3.80202	3.52441	14.76814	14.12432	13.24646	14.24290	10.28472	7.04995	11.82701	11.35110	10.96910	5.95913	5.13971	4.59560	23.81631	19.27209	15.69834
37120	3.65885	3.68010	3.33610	14.75591	14.10978	13.26253	14.07900	10.13617	6.99613	11.82782	11.32198	10.93362	6.11367	5.35439	4.84692	23.85012	19.28391	15.68724
37280	3.78284	3.73163	3.31131	14.75918	14.12884	13.27655	13.92067	9.92614	6.77613	11.81463	11.31599	10.94159	5.98692	5.31618	4.90324	23.83883	19.28369	15.69000
37450	3.98745	3.95143	3.49130	14.76858	14.13092	13.27696	13.95085	9.87989	6.66129	11.82132	11.32375	10.93974	5.81678	5.16573	4.77192	23.83373	19.28929	15.70034
37610	3.97524	4.00019	3.59692	14.76989	14.13086	13.28048	14.07842	10.01249	6.75472	11.82872	11.32574	10.93864	5.80386	5.09980	4.65918	23.85097	19.29503	15.70096
37780	3.85712	3.90527	3.53642	14.77075	14.13815	13.28982	14.10776	10.05684	6.81499	11.83339	11.32955	10.94877	5.86474	5.14688	4.69577	23.85214	19.29955	15.69927	36.92	6.2	0.00	-2.04	0.01731	0.01200	0.01519	0.01814	0.01876	0.01467	0.00548	0.01519	0.02008	0.01845	0.01280	0.01632	0.01709	0.01765	0.01379	0.00569	0.01601	0.02130
37940	3.84768	3.87139	3.48415	14.77381	14.14116	13.28955	14.04310	10.01633	6.80783	11.82491	11.33026	10.94835	5.90933	5.20282	4.74935	23.84192	19.29645	15.70766
38110	3.84430	3.84360	3.45027	14.77550	14.13100	13.27986	14.03917	10.02867	6.82445	11.83243	11.32794	10.94261	5.92365	5.21308	4.76313	23.85342	19.30920	15.70144
38270	3.87196	3.86598	3.44208	14.77381	14.14366	13.29498	13.96763	9.91629	6.70850	11.83059	11.33539	10.95451	5.88082	5.23168	4.84706	23.83894	19.29080	15.69732
38430	4.03359	4.03097	3.59129	14.78581	14.14913	13.28462	14.02394	9.93435	6.67828	11.82510	11.33273	10.94719	5.76448	5.08887	4.67378	23.84426	19.29004	15.70230
38600	3.91282	3.97355	3.60864	14.77307	14.13968	13.28850	14.16924	10.09519	6.83424	11.83185	11.33087	10.94609	5.82711	5.09207	4.62258	23.86450	19.30152	15.70277
38760	3.80080	3.85317	3.50402	14.77886	14.14391	13.29478	14.09242	10.09111	6.86724	11.84765	11.34509	10.95767	5.90903	5.18006	4.71286	23.85108	19.30009	15.70374
38930	3.82402	3.84531	3.46302	14.77510	14.14164	13.29028	14.03658	10.02657	6.80922	11.83980	11.34211	10.96075	5.88252	5.16487	4.71246	23.84639	19.30363	15.70660
39090	3.84604	3.86899	3.48529	14.77994	14.14574	13.29571	14.04905	10.04146	6.82893	11.83239	11.33623	10.95495	5.91542	5.19687	4.73623	23.86194	19.30539	15.71411
39260	3.82202	3.81541	3.41336	14.79049	14.15134	13.29530	13.99307	9.99919	6.81806	11.84237	11.34500	10.95993	5.96931	5.27628	4.84625	23.84150	19.30961	15.71245
39420	3.92017	3.89426	3.44818	14.78286	14.14998	13.30056	13.93837	9.88678	6.66921	11.84531	11.34309	10.96229	5.83875	5.19945	4.83599	23.85981	19.29777	15.70077	36.92	6.3	0.00	-2.04	0.01731	0.01200	0.01519	0.01814	0.01876	0.01467	0.00548	0.01519	0.02008	0.01845	0.01280	0.01632	0.01709	0.01765	0.01379	0.00569	0.01601	0.02130
39590	4.08323	4.10103	3.65993	14.78903	14.15666	13.30445	14.01802	9.89758	6.61202	11.84572	11.34387	10.96703	5.69721	5.04911	4.67921	23.85150	19.29965	15.69557
39750	4.02882	4.11695	3.75112	14.78840	14.16477	13.31167	14.18060	10.06448	6.74049	11.83858	11.33914	10.96373	5.71319	5.00431	4.55566	23.86002	19.29705	15.69234
39910	3.84485	3.94974	3.63043	14.78220	14.15436	13.30063	14.21684	10.15880	6.87602	11.84059	11.34503	10.96838	5.81447	5.05968	4.57155	23.86962	19.30163	15.70413
40080	3.75927	3.83426	3.51335	14.77893	14.14270	13.29567	14.16147	10.15203	6.91369	11.84896	11.34573	10.96229	5.89259	5.13309	4.63885	23.85704	19.31025	15.70402
40240	3.75763	3.79830	3.45283	14.77863	14.14506	13.30105	14.07384	10.10065	6.88692	11.84863	11.35103	10.96732	5.93621	5.19357	4.71816	23.87346	19.31402	15.71036
40400	3.80812	3.81878	3.43314	14.78122	14.14676	13.29508	14.02290	10.02910	6.83395	11.84305	11.34562	10.96201	5.92820	5.20676	4.74213	23.86983	19.31223	15.71109
40570	3.83353	3.83831	3.44229	14.78197	14.14769	13.30017	13.99337	9.99810	6.79750	11.84071	11.34228	10.96754	5.89727	5.19059	4.74718	23.87602	19.30971	15.71288
40730	3.89198	3.91300	3.51541	14.78728	14.15228	13.29665	14.01735	9.98500	6.74979	11.84660	11.34566	10.96557	5.82676	5.13041	4.69280	23.85832	19.31056	15.71286
40900	3.86539	3.89846	3.52115	14.78744	14.15114	13.30110	14.08135	10.05768	6.82592	11.84660	11.34471	10.96707	5.87214	5.14147	4.67407	23.84639	19.30926	15.71124
41070	3.81472	3.84920	3.49017	14.78139	14.14848	13.29815	14.10250	10.06881	6.84694	11.84758	11.34828	10.97100	5.88976	5.16133	4.69166	23.87390	19.31331	15.71391	36.92	6.0	0.00	-2.04	0.01731	0.01200	0.01519	0.01814	0.01876	0.01467	0.00548	0.01519	0.02008	0.01845	0.01280	0.01632	0.01709	0.01765	0.01379	0.00569	0.01601	0.02130
41230	3.81363	3.83958	3.46473	14.78237	14.14513	13.29856	14.05390	10.04935	6.83411	11.84896	11.34973	10.96913	5.90134	5.18126	4.72221	23.86195	19.31124	15.71008
41390	3.83845	3.85593	3.46765	14.78144	14.14673	13.30045	14.05064	10.02236	6.80851	11.85167	11.34948	10.96829	5.89031	5.17865	4.72300	23.87518	19.31241	15.71489
41560	3.84677	3.86383	3.48134	14.78167	14.14682	13.30299	14.04507	10.03078	6.81498	11.84821	11.34753	10.97041	5.89156	5.17760	4.72587	23.86600	19.31241	15.70919
41720	3.84957	3.86388	3.46985	14.78436	14.14959	13.30142	14.03194	10.01418	6.80643	11.84926	11.34941	10.97131	5.90480	5.19361	4.74252	23.86835	19.31501	15.71879
41890	3.84645	3.85818	3.46914	14.78328	14.15111	13.30793	14.02466	10.00504	6.77202	11.84753	11.34889	10.97423	5.85018	5.15870	4.74371	23.87304	19.31169	15.71546
42050	3.93244	3.95636	3.55128	14.78930	14.15890	13.31339	14.04747	9.97106	6.72142	11.85547	11.34562	10.96552	5.80624	5.12565	4.70200	23.86792	19.30760	15.70704
42220	3.90911	3.94160	3.55149	14.79852	14.16084	13.29966	14.08496	10.04115	6.80449	11.84597	11.35490	10.96656	5.85692	5.13473	4.66752	23.86195	19.32500	15.73028
42380	3.79239	3.82486	3.46571	14.78104	14.14257	13.30096	14.09401	10.09615	6.89156	11.84436	11.33791	10.96420	5.93845	5.19433	4.71024	23.88885	19.31555	15.70589
42550	3.79274	3.80200	3.41686	14.78361	14.15349	13.29746	14.00363	10.01146	6.82083	11.84190	11.34680	10.97050	5.93546	5.22987	4.78492	23.85747	19.31129	15.71123
42720	3.88489	3.88195	3.46855	14.78337	14.14672	13.29653	14.01381	9.96853	6.74979	11.84235	11.34497	10.96616	5.85270	5.16720	4.73979	23.84629	19.30986	15.71228	36.87	6.2	0.00	-2.04	0.01731	0.01200	0.01519	0.01814	0.01876	0.01467	0.00548	0.01519	0.02008	0.01845	0.01280	0.01632	0.01709	0.01765	0.01379	0.00569	0.01601	0.02130
42880	3.91355	3.93768	3.54563	14.77938	14.14436	13.29658	14.04340	10.00036	6.75995	11.84162	11.33967	10.96288	5.83565	5.13082	4.68871	23.87699	19.30672	15.71181
43050	3.85201	3.88802	3.51724	14.78599	14.15164	13.30047	14.09262	10.07412	6.84260	11.84791	11.34672	10.96541	5.87923	5.14472	4.67298	23.87998	19.31251	15.71350
43210	3.80843	3.84022	3.47462	14.78868	14.15158	13.29519	14.06049	10.05731	6.83518	11.84853	11.34892	10.97232	5.89989	5.18016	4.72164	23.85459	19.31256	15.71266
43380	3.84341	3.85951	3.48509	14.78319	14.14552	13.29756	14.05780	10.02895	6.79248	11.85441	11.35154	10.97002	5.83222	5.11868	4.67653	23.86440	19.31728	15.71948
43540	3.89105	3.94746	3.59352	14.77984	14.14426	13.30250	14.10400	10.05931	6.78921	11.85599	11.34354	10.96058	5.80123	5.07882	4.61575	23.89366	19.32150	15.71263
43710	3.80878	3.87212	3.53531	14.78971	14.16066	13.30294	14.16070	10.14704	6.91538	11.84673	11.34833	10.97128	5.92472	5.16609	4.67198	23.87977	19.32434	15.72416
43870	3.74500	3.74991	3.37031	14.79934	14.16357	13.30634	14.02175	10.05265	6.90062	11.85297	11.35541	10.97378	6.06308	5.34566	4.88178	23.88425	19.33284	15.73109
44040	3.86547	3.79959	3.34865	14.79533	14.15746	13.30647	13.89709	9.88546	6.71836	11.85566	11.34881	10.96700	5.94029	5.28496	4.89572	23.89173	19.33167	15.72627
44200	4.01311	3.99521	3.55010	14.79442	14.16009	13.30891	13.96850	9.91160	6.66301	11.85149	11.35181	10.97391	5.75981	5.09859	4.70521	23.88382	19.32267	15.72190
44370	3.96870	4.02527	3.65132	14.79810	14.16259	13.31031	14.12893	10.05620	6.77010	11.84949	11.35189	10.97275	5.77594	5.05896	4.60766	23.87689	19.32032	15.72091	36.92	6.1	0.00	-2.04	0.01731	0.01200	0.01519	0.01814	0.01876	0.01467	0.00548	0.01519	0.02008	0.01845	0.01280	0.01632	0.01709	0.01765	0.01379	0.00569	0.01601	0.02130
44530	3.83204	3.90045	3.56058	14.79747	14.16249	13.31085	14.11878	10.10206	6.84546	11.86261	11.35872	10.97558	5.86515	5.14694	4.69545	23.86345	19.32306	15.72091
44690	3.85176	3.87712	3.49854	14.80199	14.17181	13.32106	14.06972	10.02021	6.78700	11.86113	11.36275	10.97805	5.84157	5.13821	4.69598	23.87860	19.32972	15.72761
44860	3.89556	3.94634	3.57869	14.79321	14.16078	13.31422	14.11163	10.05702	6.79489	11.86396	11.35749	10.97456	5.81709	5.09798	4.63827	23.88351	19.33238	15.72339
45020	3.82580	3.88047	3.52902	14.80164	14.16839	13.31530	14.10903	10.11710	6.88436	11.85657	11.36316	10.98697	5.90521	5.15722	4.67185	23.88437	19.32279	15.72295
45190	3.78155	3.80682	3.43767	14.80905	14.17233	13.31484	14.04792	10.06500	6.87091	11.85920	11.37099	10.98950	5.95964	5.23488	4.76961	23.87561	19.33184	15.73305
45350	3.84743	3.83554	3.42981	14.81310	14.17075	13.31256	14.00169	9.98117	6.78259	11.86085	11.36482	10.98264	5.91509	5.22125	4.78598	23.87411	19.33544	15.73358
45520	3.89895	3.89975	3.48833	14.81226	14.17206	13.31881	14.01908	9.98364	6.76726	11.85854	11.36459	10.98390	5.86272	5.15784	4.71470	23.87561	19.32648	15.72408
45680	3.87148	3.90972	3.52672	14.80996	14.17767	13.31927	14.08675	10.03496	6.79696	11.84967	11.35940	10.97737	5.87325	5.17383	4.74023	23.87796	19.33472	15.73975
45840	3.87534	3.88380	3.47489	14.82251	14.18498	13.32224	14.02052	9.99244	6.77921	11.86356	11.36808	10.98158	5.88511	5.18909	4.75912	23.87924	19.33787	15.73753
46010	3.91213	3.93551	3.54305	14.81050	14.17680	13.32612	14.06213	9.99848	6.73914	11.86444	11.36960	10.98816	5.79662	5.09142	4.65560	23.89591	19.33233	15.73240	36.92	6.2	0.00	-2.04	0.01731	0.01200	0.01519	0.01814	0.01876	0.01467	0.00548	0.01519	0.02008	0.01845	0.01280	0.01632	0.01709	0.01765	0.01379	0.00569	0.01601	0.02130
46170	3.88929	3.96214	3.62004	14.81625	14.17948	13.32237	14.22602	10.16797	6.90179	11.86818	11.37374	10.99181	5.83853	5.06779	4.55311	23.88949	19.33363	15.73338
46340	3.67735	3.73752	3.43050	14.81503	14.18626	13.32892	14.19433	10.27419	7.11662	11.86226	11.36964	11.00303	6.12323	5.29447	4.70982	23.90447	19.33823	15.72441
46500	3.64255	3.63737	3.23408	14.82367	14.19858	13.33748	13.93715	10.04738	6.98294	11.86534	11.37229	10.99968	6.27593	5.57955	5.12496	23.89719	19.34652	15.74287
46660	3.94702	3.76478	3.25500	14.82510	14.18529	13.32352	13.92956	9.74820	6.57793	11.88618	11.39301	11.00987	6.02244	5.50125	5.25412	23.90362	19.34494	15.75488
46830	4.45352	4.37077	3.76136	14.84407	14.19465	13.32149	13.87708	9.86125	6.62276	11.87478	11.38976	11.00714	5.58223	5.02611	4.78444	23.90640	19.35378	15.75276
46990	4.38513	4.58477	4.25614	14.82134	14.20330	13.35970	14.53466	10.18241	6.60673	11.88457	11.36688	10.97995	5.74267	5.03701	4.42078	23.91776	19.36610	15.75655
47160	3.86192	4.14230	4.01006	14.82099	14.18662	13.34178	14.85324	10.82657	7.43742	11.90622	11.40542	11.00551	5.82965	5.04621	4.52412	23.87603	19.33841	15.75597
47320	4.06972	3.58791	3.46581	14.84548	14.19363	13.32556	14.49867	10.69308	7.58522	11.90878	11.42339	11.04343	6.46883	5.51139	4.79188	23.87005	19.32859	15.74311
47480	3.68249	3.67732	3.39078	14.83518	14.18765	13.32153	13.92880	10.13556	7.11873	11.88704	11.39214	11.02171	6.42978	5.70424	5.23693	23.93922	19.35423	15.74591
47650	4.01630	3.82422	3.26380	14.82522	14.18699	13.32777	13.93046	9.81488	6.61792	11.86897	11.38102	11.00824	6.00217	5.41758	5.10415	23.91004	19.35388	15.75164	36.92	6.1	0.00	-2.04	0.01731	0.01200	0.01519	0.01814	0.01876	0.01467	0.00548	0.01519	0.02008	0.01845	0.01280	0.01632	0.01709	0.01765	0.01379	0.00569	0.01601	0.02130
47810	4.26469	4.22237	3.70963	14.83276	14.19288	13.32880	13.97493	9.85893	6.61650	11.86246	11.37778	10.99691	5.72713	5.08906	4.73003	23.90126	19.35907	15.76039
47980	4.05527	4.13545	3.76632	14.83245	14.18999	13.33383	14.24179	10.15672	6.84708	11.87240	11.37961	10.99314	5.78026	5.04796	4.58221	23.89998	19.34518	15.74808
48140	3.81120	3.90541	3.58940	14.83403	14.19957	13.34621	14.22176	10.19480	6.95945	11.88422	11.38287	11.00122	5.95369	5.20048	4.71583	23.89719	19.34567	15.74953
48310	3.81468	3.83729	3.46477	14.83095	14.19508	13.33737	14.06572	10.07329	6.87491	11.87798	11.38410	11.00525	5.97334	5.25296	4.79765	23.89377	19.35420	15.75209
48470	3.88605	3.88761	3.48748	14.82660	14.18595	13.33486	14.05880	10.04802	6.84555	11.88008	11.38440	11.00993	5.95442	5.24385	4.79895	23.91047	19.35402	15.74604
48630	3.89901	3.90140	3.49466	14.82714	14.19102	13.33658	14.05141	10.03237	6.82293	11.87340	11.38412	11.00831	5.92052	5.21639	4.77916	23.89463	19.35600	15.75189
48800	3.92205	3.94534	3.55144	14.82841	14.19077	13.33724	14.09700	10.05752	6.82439	11.87055	11.37965	10.99957	5.89571	5.18400	4.73902	23.89377	19.34748	15.75167
48960	3.88485	3.91760	3.53668	14.83142	14.19470	13.34233	14.11437	10.07870	6.85712	11.87463	11.38328	11.00294	5.92308	5.20101	4.75238	23.90040	19.34748	15.74737
49130	3.88413	3.90343	3.51879	14.82710	14.18948	13.33945	14.06716	10.05702	6.84629	11.87723	11.38262	11.00192	5.92293	5.21075	4.76404	23.89270	19.34996	15.75340
49290	3.90529	3.93364	3.54814	14.82774	14.19354	13.33893	14.06918	10.07111	6.83176	11.88789	11.39015	11.01085	5.89074	5.17748	4.73489	23.90330	19.35230	15.75017	36.92	6.1	0.00	-2.04	0.01731	0.01200	0.01519	0.01814	0.01876	0.01467	0.00548	0.01519	0.02008	0.01845	0.01280	0.01632	0.01709	0.01765	0.01379	0.00569	0.01601	0.02130
49460	3.90100	3.94240	3.56638	14.82779	14.18891	13.33665	14.12297	10.09295	6.85330	11.88185	11.38777	11.00952	5.89400	5.16728	4.71315	23.90159	19.35018	15.75293
49620	3.87013	3.91310	3.55088	14.83383	14.19233	13.33851	14.14106	10.11291	6.88009	11.88242	11.39129	11.01040	5.91427	5.18304	4.71785	23.89988	19.35306	15.75322
49790	3.85281	3.88612	3.51626	14.82835	14.19130	13.34517	14.12230	10.09809	6.87582	11.88404	11.38992	11.01552	5.93301	5.20904	4.75789	23.92173	19.35018	15.75393
49950	3.88620	3.90520	3.51605	14.83047	14.18935	13.33900	14.06687	10.04542	6.82922	11.88285	11.38823	11.01026	5.92291	5.22130	4.78247	23.89453	19.34729	15.75044
50120	3.91351	3.92653	3.53616	14.82835	14.18644	13.33346	14.10926	10.06844	6.83761	11.87704	11.38494	11.01226	5.89242	5.16913	4.70765	23.90459	19.35112	15.74808
50280	3.86467	3.91193	3.55617	14.82581	14.18667	13.33422	14.14058	10.13362	6.90044	11.88030	11.39157	11.01971	5.91422	5.17333	4.69995	23.89517	19.34675	15.75164
50440	3.83382	3.86518	3.49669	14.82849	14.18504	13.33476	14.09170	10.09940	6.90019	11.88377	11.38885	11.00897	5.98276	5.25078	4.78026	23.91573	19.35681	15.75653
50610	3.85630	3.86092	3.46187	14.83195	14.19236	13.34153	14.04566	10.04896	6.85233	11.88400	11.38718	11.01415	5.96628	5.25794	4.81598	23.91509	19.36213	15.75714
50770	3.92563	3.92914	3.51938	14.83566	14.19959	13.34915	14.05698	10.01640	6.79488	11.88646	11.39264	11.01683	5.90027	5.20990	4.78578	23.91937	19.35956	15.75934
50940	3.94605	3.96707	3.56845	14.83523	14.19765	13.34622	14.06748	10.03897	6.80015	11.88726	11.38852	11.01296	5.87740	5.18123	4.74519	23.91712	19.35982	15.76431	36.92	6.1	0.00	-2.04	0.01731	0.01200	0.01519	0.01814	0.01876	0.01467	0.00548	0.01519	0.02008	0.01845	0.01280	0.01632	0.01709	0.01765	0.01379	0.00569	0.01601	0.02130
51100	3.91349	3.94768	3.56659	14.83725	14.19795	13.34812	14.10543	10.07969	6.84060	11.88872	11.39256	11.01683	5.88711	5.17150	4.72268	23.91369	19.35842	15.75999
51270	3.88994	3.92768	3.55366	14.83946	14.19960	13.35389	14.12194	10.09418	6.86610	11.89409	11.39837	11.02078	5.91405	5.18527	4.72631	23.93987	19.36497	15.76551
51430	3.86959	3.90035	3.53531	14.84085	14.19956	13.34971	14.09656	10.09977	6.87047	11.89481	11.40255	11.02575	5.92270	5.19891	4.73872	23.93085	19.36895	15.77282
51600	3.87260	3.90061	3.52203	14.84701	14.20614	13.35478	14.09771	10.09347	6.87038	11.90231	11.40843	11.03046	5.93717	5.21351	4.76092	23.93450	19.37265	15.77322
51760	3.88312	3.89733	3.50706	14.84988	14.20963	13.36484	14.07806	10.05917	6.84378	11.90358	11.40386	11.02957	5.94890	5.23632	4.79403	23.93880	19.37894	15.77764
51920	3.91117	3.92094	3.52102	14.84435	14.20849	13.35953	14.06585	10.02124	6.79590	11.89912	11.40219	11.02972	5.89387	5.20075	4.77858	23.92806	19.37329	15.77347
52090	3.95310	3.97697	3.57442	14.84951	14.21236	13.36327	14.09646	10.04123	6.80348	11.90049	11.40388	11.03024	5.89262	5.19383	4.76014	23.91176	19.37790	15.77904
52250	3.91366	3.93316	3.53791	14.85379	14.21131	13.36053	14.09087	10.05154	6.83387	11.90054	11.40404	11.02557	5.92820	5.22038	4.77434	23.93665	19.37500	15.77799
52410	3.90071	3.91011	3.51211	14.84927	14.20893	13.36423	14.06383	10.05031	6.83218	11.90222	11.40413	11.02605	5.92700	5.22549	4.78667	23.92184	19.37957	15.77273
52580	3.92652	3.93698	3.53858	14.84485	14.20882	13.36471	14.07245	10.02587	6.79648	11.90160	11.40566	11.02924	5.88854	5.19284	4.76225	23.93385	19.37801	15.77485	36.92	6.1	0.00	-2.04	0.01731	0.01200	0.01519	0.01814	0.01876	0.01467	0.00548	0.01519	0.02008	0.01845	0.01280	0.01632	0.01709	0.01765	0.01379	0.00569	0.01601	0.02130
52740	3.94263	3.97257	3.58557	14.85041	14.21123	13.36252	14.11514	10.05545	6.80869	11.90407	11.40934	11.03369	5.86257	5.15507	4.71574	23.93664	19.38294	15.77488
52910	3.89870	3.94647	3.57444	14.84843	14.21333	13.36663	14.12636	10.11229	6.87546	11.90885	11.41278	11.03809	5.90622	5.17020	4.70550	23.93943	19.38150	15.78291
53070	3.86030	3.90561	3.54752	14.85382	14.21119	13.36540	14.12288	10.11025	6.86755	11.90842	11.41436	11.03766	5.89734	5.16675	4.70658	23.92934	19.38729	15.78686
53240	3.86686	3.91570	3.55620	14.85488	14.21191	13.36727	14.13526	10.13814	6.90427	11.90768	11.41003	11.03277	5.92313	5.17372	4.68967	23.94524	19.38254	15.78380
53400	3.80173	3.83582	3.48228	14.84984	14.21028	13.36641	14.13439	10.15810	6.96585	11.90085	11.40916	11.03875	6.01675	5.25080	4.75190	23.94567	19.38584	15.77918
53560	3.79234	3.78917	3.40497	14.85227	14.21676	13.36754	14.04344	10.07792	6.91308	11.89874	11.40863	11.03954	6.05059	5.32399	4.85629	23.94223	19.38598	15.78302
53730	3.87348	3.84273	3.41467	14.85872	14.22087	13.37397	13.98950	9.99298	6.82863	11.90459	11.40879	11.03389	6.01586	5.32622	4.89912	23.96999	19.39793	15.79512
53890	3.95132	3.91145	3.45925	14.85729	14.21716	13.36892	13.95845	9.94266	6.75390	11.90917	11.41106	11.03104	5.95130	5.29094	4.90413	23.92354	19.39259	15.79188
54060	4.04518	4.03018	3.57404	14.85462	14.21695	13.37013	13.98883	9.92091	6.67601	11.90531	11.40870	11.03213	5.82791	5.18399	4.81763	23.93299	19.38584	15.78561
54220	4.04305	4.07238	3.65443	14.86835	14.22772	13.36794	14.09204	10.02704	6.77536	11.90613	11.41486	11.03116	5.83665	5.13626	4.69899	23.93406	19.38953	15.79902	36.92	6.1	0.00	-2.04	0.01731	0.01200	0.01519	0.01814	0.01876	0.01467	0.00548	0.01519	0.02008	0.01845	0.01280	0.01632	0.01709	0.01765	0.01379	0.00569	0.01601	0.02130
54380	3.88859	3.93866	3.57157	14.86068	14.22424	13.38021	14.15157	10.11485	6.87855	11.92219	11.41760	11.03820	5.92235	5.19822	4.73702	23.94717	19.39700	15.78803
54550	3.86354	3.88365	3.49990	14.86382	14.22821	13.37676	14.07298	10.04386	6.82431	11.92117	11.42659	11.05576	5.91847	5.22836	4.81880	23.97020	19.39501	15.79265
54710	3.99990	4.02317	3.61118	14.87151	14.23031	13.37767	14.07346	10.01524	6.74905	11.91418	11.42063	11.04350	5.80479	5.11017	4.68194	23.95470	19.40185	15.79819
54880	3.92340	3.99661	3.64779	14.86905	14.22872	13.38066	14.23939	10.17839	6.91355	11.91508	11.42200	11.04602	5.88023	5.12978	4.63952	23.98638	19.39705	15.79803
55040	3.76869	3.81500	3.47741	14.86309	14.22704	13.38100	14.15623	10.16682	6.97525	11.91613	11.41980	11.04699	6.03255	5.27883	4.79111	23.96029	19.40376	15.79689
55200	3.82684	3.81080	3.41066	14.87356	14.23303	13.38280	14.01114	10.01620	6.84605	11.91948	11.42613	11.05270	6.00057	5.30355	4.87215	23.95728	19.39859	15.79882
55370	3.95700	3.93609	3.50171	14.87196	14.23071	13.38416	14.02827	9.96860	6.75551	11.92437	11.42973	11.05217	5.89957	5.22677	4.81798	23.94093	19.40135	15.80146
55530	3.97963	3.99827	3.58443	14.86948	14.22868	13.38159	14.06741	10.01571	6.76814	11.91777	11.42663	11.05237	5.85049	5.16326	4.74468	23.94308	19.40417	15.80099
55700	3.95261	3.99806	3.61719	14.86976	14.23555	13.38722	14.13056	10.06267	6.80220	11.92362	11.43028	11.05301	5.84138	5.13792	4.70235	23.96891	19.40430	15.80396
55860	3.89877	3.94273	3.57312	14.88195	14.24819	13.39910	14.11119	10.10745	6.88587	11.92915	11.43432	11.06309	5.94602	5.22279	4.76246	23.94868	19.40415	15.81208	36.87	6.2	0.00	-2.04	0.01731	0.01200	0.01519	0.01814	0.01876	0.01467	0.00548	0.01519	0.02008	0.01845	0.01280	0.01632	0.01709	0.01765	0.01379	0.00569	0.01601	0.02130
56030	3.85687	3.85875	3.46261	14.88589	14.24362	13.38780	14.03120	10.03257	6.83353	11.93825	11.43964	11.06338	5.94890	5.24314	4.80929	23.97538	19.41717	15.81620
56190	3.94286	3.95436	3.55261	14.87703	14.24078	13.39177	14.06112	10.02354	6.79274	11.92995	11.43510	11.06261	5.88074	5.18025	4.73235	23.96827	19.41372	15.81587
56350	3.86628	3.88514	3.51236	14.88712	14.24983	13.39802	14.11419	10.12722	6.93323	11.93713	11.43854	11.06119	6.00045	5.25134	4.76269	23.99957	19.42626	15.82223
56520	3.80637	3.79732	3.40641	14.88313	14.25132	13.40330	14.02775	10.03952	6.86845	11.93052	11.43689	11.06742	6.02176	5.32925	4.89527	23.97215	19.41767	15.81867
56680	3.96211	3.92342	3.47611	14.89005	14.25157	13.39920	13.97828	9.93211	6.71929	11.93178	11.44052	11.06195	5.87785	5.22169	4.83413	23.96202	19.41694	15.82037
56850	4.04401	4.07614	3.67227	14.88655	14.24713	13.39807	14.11013	10.04302	6.75580	11.93176	11.43985	11.06445	5.77917	5.07576	4.63262	23.97431	19.41204	15.80978
57010	3.89058	3.98410	3.65076	14.88206	14.24739	13.39878	14.20498	10.17175	6.89935	11.94830	11.45069	11.06547	5.87121	5.13163	4.65694	23.95492	19.41231	15.81495
57180	3.81657	3.86336	3.51193	14.88561	14.25113	13.40461	14.10039	10.12012	6.90841	11.93460	11.44104	11.06746	5.95898	5.21748	4.73391	23.96698	19.42230	15.82606
57340	3.81639	3.83763	3.47132	14.89305	14.24996	13.40056	14.10338	10.12902	6.93769	11.92882	11.43951	11.06844	5.98735	5.22883	4.72952	23.97538	19.42339	15.81934
57510	3.79427	3.80566	3.42849	14.89582	14.25438	13.40211	14.05037	10.07043	6.88837	11.93346	11.45201	11.07439	6.00479	5.29041	4.84395	23.97839	19.41722	15.82394	36.92	6.1	0.00	-2.04	0.01731	0.01200	0.01519	0.01814	0.01876	0.01467	0.00548	0.01519	0.02008	0.01845	0.01280	0.01632	0.01709	0.01765	0.01379	0.00569	0.01601	0.02130
57670	3.92018	3.90806	3.48761	14.89610	14.25545	13.40799	14.00365	9.97646	6.75873	11.94462	11.44875	11.06838	5.89615	5.22061	4.81016	23.95813	19.41513	15.81657
57840	3.98353	4.00025	3.59085	14.89646	14.26143	13.40923	14.08806	10.03224	6.79145	11.94485	11.45272	11.08302	5.84944	5.13679	4.68456	23.96610	19.41967	15.82692
58000	3.86618	3.91635	3.56987	14.89882	14.25630	13.40070	14.15038	10.17185	6.94351	11.93999	11.45424	11.08703	5.94242	5.18552	4.69349	23.98400	19.42108	15.82781
58170	3.78598	3.80508	3.44420	14.89747	14.25660	13.40362	14.08372	10.08993	6.89815	11.94027	11.45240	11.07833	5.99829	5.27492	4.82029	23.98141	19.42376	15.82736
58330	3.89445	3.88741	3.47395	14.89556	14.25696	13.40844	14.00375	9.99640	6.79154	11.93554	11.44512	11.07118	5.92621	5.23267	4.79883	23.98551	19.42598	15.82972
58500	3.92746	3.94362	3.54730	14.89894	14.25713	13.40305	14.07843	10.06791	6.83979	11.93687	11.44356	11.07138	5.88921	5.16348	4.69543	23.98638	19.42485	15.82055
58660	3.83316	3.88021	3.53375	14.89374	14.26134	13.40557	14.13924	10.14297	6.91373	11.93341	11.45254	11.09032	5.92241	5.17611	4.70212	23.97537	19.41386	15.82185
58830	3.82973	3.86182	3.49231	14.89830	14.25226	13.39902	14.08911	10.08169	6.87150	11.95021	11.45300	11.07151	5.94691	5.23095	4.78517	23.97645	19.42444	15.82766
58990	3.89751	3.90226	3.49519	14.90005	14.26537	13.41739	14.02325	9.99811	6.79372	11.93960	11.44555	11.07877	5.92815	5.24441	4.82111	23.97623	19.41967	15.82891
59160	3.96017	3.97211	3.57092	14.90231	14.25635	13.40415	14.06266	10.02919	6.77228	11.94284	11.45525	11.08001	5.80678	5.10023	4.66056	23.97841	19.42144	15.82580	36.92	6.0	0.00	-2.04	0.01731	0.01200	0.01519	0.01814	0.01876	0.01467	0.00548	0.01519	0.02008	0.01845	0.01280	0.01632	0.01709	0.01765	0.01379	0.00569	0.01601	0.02130
59320	3.89939	3.98801	3.66188	14.90174	14.25923	13.40507	14.25404	10.21811	6.95187	11.94695	11.45884	11.07936	5.87619	5.09720	4.58482	23.97302	19.42316	15.83035
59490	3.69948	3.74899	3.42577	14.89947	14.25772	13.40714	14.18105	10.24426	7.10120	11.93846	11.44599	11.07020	6.17906	5.38374	4.83779	23.98143	19.43489	15.83304
59650	3.72362	3.69756	3.29162	14.90002	14.26589	13.41672	13.92981	9.99899	6.88732	11.93298	11.44011	11.07639	6.11418	5.42129	4.98888	23.99287	19.43193	15.82376
59810	4.01812	3.97304	3.50244	14.90596	14.27090	13.41115	13.96657	9.90126	6.66671	11.94459	11.46190	11.08407	5.81272	5.17303	4.80780	23.96203	19.41903	15.82775
59980	4.07862	4.13501	3.73908	14.89540	14.26187	13.42219	14.14030	10.03838	6.73832	11.94791	11.44574	11.06832	5.77130	5.07898	4.64586	23.98251	19.42071	15.82309
60140	3.89537	3.97524	3.62501	14.90887	14.27486	13.41350	14.17512	10.13250	6.87657	11.94482	11.45893	11.08411	5.87578	5.13877	4.67524	23.97388	19.41939	15.82562
60310	3.85578	3.91855	3.58459	14.89505	14.25248	13.40351	14.17153	10.14138	6.88111	11.95554	11.46599	11.08904	5.84299	5.09856	4.61937	23.97496	19.42839	15.83080
60470	3.82378	3.91170	3.59961	14.89957	14.25289	13.40126	14.23339	10.21510	6.96978	11.95609	11.46280	11.08245	5.91380	5.13806	4.62522	23.98294	19.42857	15.82825
60640	3.74547	3.78938	3.45256	14.89727	14.25731	13.40613	14.12356	10.12503	6.95196	11.94469	11.44579	11.08213	6.05135	5.32009	4.85929	23.97992	19.42207	15.82479
60800	3.86295	3.80862	3.37418	14.91911	14.27462	13.40509	13.93007	9.96088	6.80750	11.95277	11.46765	11.07864	6.00715	5.32502	4.90519	23.97109	19.43869	15.84173	36.92	6.0	0.00	-2.04	0.01731	0.01200	0.01519	0.01814	0.01876	0.01467	0.00548	0.01519	0.02008	0.01845	0.01280	0.01631	0.01709	0.01765	0.01379	0.00569	0.01601	0.02130
60970	3.99536	3.97636	3.54322	14.90071	14.26338	13.41964	13.99123	9.94843	6.71116	11.94938	11.45589	11.08164	5.83267	5.16668	4.76410	23.98101	19.42782	15.83112
61130	3.99084	4.03934	3.65405	14.90738	14.27160	13.41959	14.11989	10.04717	6.78186	11.94988	11.45688	11.08304	5.80931	5.11178	4.67442	23.98036	19.43237	15.83455
61300	3.90866	3.98212	3.63083	14.90890	14.26904	13.41563	14.14195	10.10482	6.83642	11.95263	11.46266	11.08657	5.83084	5.10766	4.64907	23.98058	19.43969	15.84301
61460	3.85914	3.93220	3.59818	14.91380	14.27605	13.42464	14.17551	10.17315	6.93271	11.95702	11.46717	11.09001	5.92391	5.16735	4.66694	23.99743	19.43660	15.84843
61630	3.76109	3.79025	3.43897	14.91842	14.27652	13.42204	14.09489	10.14417	6.97857	11.95235	11.46215	11.08823	6.07506	5.32659	4.84167	23.99289	19.43928	15.83805
61790	3.85346	3.81864	3.39312	14.91446	14.27415	13.42293	13.93510	9.92341	6.73347	11.95848	11.46491	11.08829	5.93446	5.28134	4.90924	24.00434	19.42869	15.83155
61950	4.08604	4.09266	3.65757	14.90982	14.27522	13.42392	14.06852	9.97759	6.71480	11.95927	11.46592	11.08988	5.77471	5.07952	4.64101	23.99786	19.43050	15.83505
62120	3.86710	3.94352	3.61177	14.90809	14.26795	13.41530	14.23829	10.23854	7.00803	11.94812	11.45831	11.09271	5.95575	5.15760	4.62843	24.01062	19.44092	15.84928
62280	3.70974	3.73770	3.39422	14.92278	14.28396	13.42048	14.10627	10.18952	7.05118	11.95683	11.47209	11.10670	6.13384	5.35652	4.82540	24.02513	19.45012	15.85056
62440	3.74938	3.72172	3.32364	14.92011	14.28895	13.43266	13.97915	10.01742	6.89269	11.94577	11.46185	11.10255	6.10198	5.39805	4.95221	24.00379	19.44519	15.84379	36.92	6.1	0.00	-2.04	0.01731	0.01200	0.01519	0.01814	0.01876	0.01467	0.00548	0.01519	0.02008	0.01845	0.01280	0.01631	0.01709	0.01765	0.01379	0.00569	0.01601	0.02130
62610	3.94416	3.88125	3.42131	14.92869	14.28664	13.42810	13.94016	9.90635	6.72515	11.96038	11.47016	11.09656	5.93611	5.29343	4.91089	23.99990	19.43791	15.84892
62770	4.05406	4.03758	3.58446	14.92464	14.28372	13.42966	14.00883	9.93337	6.69140	11.96539	11.46898	11.09458	5.82352	5.17112	4.78235	24.00336	19.44451	15.85386
62940	4.01121	4.05319	3.65394	14.92855	14.28858	13.43370	14.12591	10.04350	6.77555	11.97138	11.47527	11.10083	5.81128	5.11125	4.67756	24.00077	19.44141	15.84674
63100	3.90977	3.98486	3.63145	14.92535	14.28660	13.43715	14.15826	10.12628	6.85716	11.97055	11.47585	11.10259	5.84268	5.11348	4.64993	23.99904	19.44364	15.84759
63270	3.85014	3.92637	3.58684	14.92452	14.28577	13.43705	14.17505	10.14752	6.89841	11.97636	11.48013	11.10270	5.89401	5.15103	4.67225	24.00141	19.44387	15.84730
63430	3.81995	3.86737	3.51631	14.92627	14.28643	13.43497	14.12368	10.12922	6.91389	11.96813	11.47493	11.10242	5.95428	5.21115	4.73129	23.99623	19.44542	15.85038
63600	3.82977	3.85185	3.47894	14.92630	14.28709	13.43499	14.07778	10.08613	6.89101	11.96672	11.47792	11.10320	5.97118	5.24276	4.77931	23.99774	19.44405	15.84995
63760	3.86190	3.86756	3.47243	14.92763	14.28726	13.43350	14.05087	10.04468	6.84818	11.96997	11.47822	11.10641	5.95278	5.24938	4.80584	24.00141	19.44678	15.85541
63930	3.91130	3.91228	3.50745	14.92746	14.28735	13.43278	14.03984	10.00948	6.80075	11.96897	11.47555	11.10280	5.91164	5.22238	4.79330	24.00617	19.44906	15.85687
64090	3.92946	3.94252	3.53666	14.93197	14.29504	13.44076	14.03114	10.01462	6.79431	11.97266	11.48158	11.10861	5.90574	5.21766	4.79727	24.00575	19.44879	15.85786	36.92	5.9	0.00	-2.04	0.01731	0.01200	0.01519	0.01814	0.01876	0.01467	0.00548	0.01519	0.02008	0.01845	0.01280	0.01631	0.01709	0.01765	0.01379	0.00569	0.01601	0.02130
64260	3.95882	3.96968	3.55431	14.94042	14.30216	13.44533	14.03517	9.98153	6.75159	11.97532	11.48529	11.11150	5.86475	5.19454	4.79601	24.01354	19.45458	15.86132
64420	4.00659	4.03706	3.63451	14.94118	14.29829	13.44607	14.07703	10.00452	6.73578	11.97242	11.48218	11.10404	5.79887	5.11870	4.70361	23.99710	19.44802	15.85727
64580	3.94423	4.00999	3.65275	14.93534	14.29731	13.44131	14.17867	10.11868	6.83913	11.97217	11.48453	11.11443	5.80786	5.07783	4.61409	24.01635	19.45786	15.86283
64750	3.85652	3.95512	3.64524	14.93280	14.29052	13.43868	14.25419	10.19775	6.91332	12.00222	11.50778	11.12057	5.83199	5.07689	4.59137	24.00099	19.46046	15.86650
64910	3.79483	3.88465	3.57836	14.92110	14.28253	13.44570	14.22993	10.22651	6.98241	11.99770	11.49101	11.10831	5.93537	5.15792	4.64415	24.00813	19.45385	15.85885
65080	3.75215	3.78940	3.43683	14.92554	14.28877	13.44074	14.08271	10.11036	6.94058	11.97739	11.48340	11.10635	6.04001	5.30541	4.83101	23.99278	19.44342	15.85203
65240	3.86877	3.85066	3.43688	14.92934	14.29479	13.44225	13.98814	9.97355	6.77920	11.97816	11.48670	11.11393	5.92853	5.25129	4.84228	24.00899	19.45062	15.85624
65400	4.00447	4.01390	3.59501	14.93071	14.29363	13.44391	14.04437	9.97134	6.72184	11.97842	11.48147	11.10737	5.81679	5.14348	4.73605	24.00294	19.45166	15.85541
65570	3.95799	4.00345	3.62124	14.94052	14.30671	13.44967	14.13735	10.07378	6.83123	11.97360	11.48409	11.11152	5.88162	5.17040	4.71709	24.00056	19.44998	15.86049
65730	3.84270	3.84877	3.45447	14.94424	14.29888	13.44051	14.02999	10.02929	6.86378	11.99254	11.49881	11.11089	6.04929	5.36287	4.93061	24.00111	19.46016	15.87625	36.92	6.1	0.00	-2.04	0.01731	0.01200	0.01519	0.01814	0.01876	0.01467	0.00548	0.01519	0.02008	0.01845	0.01280	0.01631	0.01709	0.01765	0.01379	0.00569	0.01601	0.02130
65900	3.94661	3.87843	3.40863	14.94250	14.29008	13.44130	13.90400	9.87210	6.68152	12.00643	11.49898	11.11135	5.91691	5.29733	4.95110	24.00305	19.45478	15.86196
66060	4.16340	4.16428	3.69782	14.93390	14.30339	13.45515	14.02358	9.88894	6.61773	11.99347	11.49067	11.11956	5.70890	5.07404	4.72729	24.01994	19.46152	15.85584
66220	4.09659	4.18165	3.79693	14.94671	14.33000	13.47193	14.17321	10.07270	6.74947	11.97396	11.48811	11.13735	5.75437	5.05591	4.62114	24.00890	19.43984	15.85258
66390	3.89047	3.97374	3.63313	14.95501	14.31445	13.44497	14.17875	10.11294	6.84348	11.98942	11.50249	11.12615	5.84666	5.12462	4.67999	23.99916	19.45227	15.86117
66550	3.87733	3.93314	3.57280	14.93873	14.30760	13.45294	14.12921	10.10049	6.86901	11.97965	11.48901	11.11715	5.88342	5.14286	4.65228	24.01691	19.46134	15.86936
66720	3.78708	3.83915	3.51353	14.94481	14.30899	13.45264	14.18449	10.21032	6.99879	11.97855	11.49187	11.12904	5.98003	5.18974	4.66939	24.01409	19.46285	15.86511
66880	3.72940	3.74956	3.39705	14.95089	14.31030	13.44828	14.07741	10.12298	6.97021	11.98472	11.50068	11.12921	6.08783	5.34983	4.87807	24.00868	19.45993	15.87134
67050	3.86705	3.81406	3.37508	14.95187	14.31092	13.45712	13.90514	9.90686	6.75009	11.99716	11.50343	11.12069	6.00815	5.37121	4.99058	24.01193	19.45801	15.87263
67210	4.06379	3.99911	3.50721	14.96020	14.31453	13.44793	13.92454	9.87761	6.66603	11.99770	11.50847	11.11873	5.86301	5.22608	4.85528	24.01149	19.46714	15.87965
67380	4.04833	4.06339	3.64343	14.94054	14.29784	13.45362	14.05165	9.98884	6.71564	11.99494	11.49402	11.11663	5.77509	5.09926	4.69125	24.01170	19.46179	15.86143	36.92	6.1	0.00	-2.04	0.01731	0.01200	0.01519	0.01814	0.01876	0.01467	0.00548	0.01519	0.02008	0.01845	0.01280	0.01631	0.01709	0.01765	0.01379	0.00569	0.01601	0.02130
67540	3.96197	4.03507	3.66909	14.94356	14.31384	13.45792	14.13734	10.07168	6.79702	11.99252	11.49933	11.12576	5.80797	5.10164	4.66030	24.01430	19.46093	15.86350
67710	3.88386	3.95424	3.60518	14.94991	14.31189	13.45518	14.15681	10.09787	6.84132	11.99806	11.50364	11.12880	5.85041	5.12331	4.66887	24.01452	19.46344	15.87116
67870	3.86229	3.92571	3.57326	14.94945	14.31671	13.46443	14.11297	10.11014	6.87484	12.00439	11.50517	11.13148	5.89751	5.16703	4.69712	24.02405	19.46225	15.86701
68040	3.82691	3.85719	3.49462	14.94884	14.31157	13.45409	14.09349	10.09054	6.88275	11.99909	11.51058	11.13984	5.93856	5.20773	4.74646	24.02578	19.46216	15.86843
68200	3.86766	3.88546	3.50209	14.94789	14.31204	13.45958	14.03277	10.01617	6.79905	12.00722	11.51180	11.13651	5.90691	5.21916	4.79667	24.02361	19.47261	15.87541
68370	3.94595	3.94896	3.53534	14.95321	14.31790	13.46137	14.03899	9.98690	6.76795	11.98883	11.50491	11.13179	5.87735	5.18392	4.75086	24.03532	19.48042	15.88526
68530	3.91267	3.95003	3.57201	14.95764	14.31352	13.46264	14.11597	10.07997	6.84197	11.99345	11.50173	11.12576	5.88042	5.15176	4.67858	24.02513	19.47224	15.88179
68690	3.80360	3.83841	3.48453	14.96049	14.32026	13.46500	14.10544	10.14717	6.96758	11.99698	11.50424	11.13387	6.02246	5.25498	4.74306	24.03619	19.48234	15.87699
68860	3.76759	3.76921	3.39125	14.95383	14.32309	13.46530	14.01162	10.03218	6.85741	11.99472	11.51169	11.14913	5.99713	5.30365	4.88034	24.01950	19.46398	15.87501
69030	3.98213	3.95591	3.51275	14.95660	14.31657	13.46623	13.95080	9.91260	6.68571	12.00833	11.50823	11.13233	5.84592	5.19808	4.81859	24.03079	19.46643	15.87221	36.87	6.1	0.00	-2.04	0.01731	0.01200	0.01519	0.01814	0.01876	0.01467	0.00548	0.01519	0.02008	0.01845	0.01280	0.01631	0.01709	0.01765	0.01379	0.00569	0.01601	0.02130
69190	4.02989	4.05115	3.63670	14.96381	14.33305	13.47013	14.09327	10.00601	6.74588	12.00144	11.51359	11.13896	5.80614	5.11066	4.67242	24.04121	19.47798	15.88204
69350	3.88960	3.95511	3.61392	14.95301	14.31381	13.46431	14.17319	10.13448	6.86460	12.00549	11.51177	11.14413	5.82566	5.08970	4.62412	24.04034	19.47894	15.88740
69520	3.85303	3.94073	3.62323	14.96343	14.31850	13.47163	14.18982	10.14295	6.86241	12.04620	11.53308	11.13404	5.82093	5.08741	4.62041	24.03990	19.49673	15.89334
69680	3.83125	3.91231	3.59581	14.94409	14.32137	13.48836	14.18602	10.17590	6.91262	12.01929	11.51528	11.13998	5.84845	5.08309	4.58705	24.03318	19.48383	15.88158
69850	3.77381	3.86123	3.56291	14.95465	14.31420	13.46673	14.19673	10.22000	6.96987	12.03081	11.53116	11.15004	5.90684	5.12787	4.62298	24.04229	19.48589	15.89444
70010	3.76709	3.81927	3.49257	14.95303	14.30765	13.46690	14.15388	10.15341	6.92825	12.03212	11.52428	11.14247	5.93562	5.18394	4.69430	24.03925	19.48680	15.88700
70180	3.80131	3.83269	3.48308	14.94856	14.31276	13.46787	14.11093	10.12373	6.92439	12.01353	11.51567	11.14874	5.95739	5.20216	4.70740	24.05663	19.48347	15.88393
70340	3.79608	3.81704	3.45476	14.96212	14.32615	13.46837	14.07950	10.09192	6.90342	12.01255	11.51998	11.15102	5.98029	5.23870	4.76029	24.03535	19.48452	15.88857
70510	3.82248	3.82545	3.43951	14.96617	14.33157	13.47578	14.01294	10.03369	6.85344	12.01191	11.52076	11.14890	5.97686	5.26801	4.81379	24.04881	19.48914	15.89363
70670	3.89023	3.87439	3.46447	14.97023	14.33331	13.47756	14.00409	9.98249	6.79052	12.01294	11.51918	11.14488	5.92602	5.24167	4.81468	24.03716	19.48126	15.89283	36.92	6.1	0.00	-2.04	0.01731	0.01200	0.01519	0.01814	0.01876	0.01467	0.00548	0.01519	0.02008	0.01845	0.01280	0.01631	0.01709	0.01765	0.01379	0.00569	0.01601	0.02130
70840	3.94485	3.94603	3.53588	14.97157	14.33515	13.47805	14.01603	9.98313	6.75391	12.01585	11.52395	11.14536	5.84943	5.16182	4.73878	24.03434	19.48144	15.88857
71000	3.92062	3.95670	3.57198	14.96383	14.33627	13.48495	14.10256	10.05293	6.82806	12.01907	11.52221	11.14345	5.89360	5.17592	4.71415	24.03738	19.48748	15.89301
71160	3.83833	3.86068	3.48808	14.96604	14.33224	13.47514	14.06857	10.06850	6.87163	12.01816	11.51774	11.14516	5.96144	5.23871	4.77598	24.03499	19.48492	15.88983
71330	3.86132	3.85983	3.46253	14.96597	14.32977	13.47390	13.99988	10.00012	6.80117	12.01623	11.51950	11.14678	5.92695	5.23339	4.80446	24.02155	19.47815	15.88784
71490	3.93304	3.93955	3.53308	14.96766	14.33204	13.47828	14.02512	9.99618	6.77493	12.01733	11.52087	11.15074	5.87389	5.17608	4.74379	24.04172	19.48638	15.89042
71660	3.90678	3.93747	3.55586	14.96333	14.33016	13.47546	14.07453	10.04949	6.82387	12.01370	11.51756	11.14853	5.88410	5.17222	4.72184	24.04324	19.48313	15.89247
71820	3.87025	3.89850	3.51871	14.97255	14.33273	13.48278	14.06896	10.03140	6.81263	12.01913	11.52307	11.14713	5.89773	5.19291	4.75419	24.03955	19.48400	15.88807
71990	3.91357	3.94275	3.55834	14.97085	14.33582	13.48480	14.07078	10.02428	6.78533	12.01975	11.51983	11.15018	5.84453	5.14014	4.70760	24.04628	19.47989	15.88509
72150	3.90397	3.95580	3.59724	14.96457	14.32765	13.47892	14.14413	10.07447	6.82089	12.01994	11.51867	11.14706	5.84793	5.13012	4.67261	24.03651	19.48743	15.89127
72320	3.85264	3.90185	3.54879	14.96404	14.33066	13.48044	14.10680	10.09391	6.86703	12.01826	11.52121	11.14768	5.90722	5.17662	4.71649	24.03770	19.48264	15.88335	36.92	5.9	0.00	-2.04	0.01731	0.01200	0.01519	0.01814	0.01876	0.01467	0.00548	0.01519	0.02008	0.01845	0.01280	0.01631	0.01709	0.01765	0.01379	0.00569	0.01601	0.02130
72480	3.85211	3.88074	3.50751	14.97066	14.32806	13.47439	14.06760	10.05462	6.83552	12.01841	11.52688	11.15599	5.89499	5.18284	4.74323	24.03011	19.48073	15.88774
72650	3.90822	3.94020	3.55307	14.96220	14.32487	13.47566	14.05242	10.00915	6.77201	12.02645	11.52160	11.13903	5.85823	5.16923	4.74318	24.03575	19.48178	15.88281
72810	3.92247	3.95125	3.56560	14.96539	14.33357	13.47987	14.06366	10.03737	6.80050	12.01542	11.52133	11.14693	5.86221	5.15478	4.71117	24.03662	19.47310	15.88161
72970	3.87868	3.91635	3.54870	14.96161	14.32543	13.47397	14.10911	10.06462	6.84264	12.01698	11.51978	11.15123	5.89569	5.17034	4.71813	24.02469	19.48292	15.88384
73140	3.86312	3.89895	3.52431	14.96289	14.32948	13.47317	14.06568	10.05630	6.83518	12.01033	11.51769	11.14543	5.91324	5.19923	4.75142	24.04139	19.47881	15.88774
73300	3.88246	3.89937	3.50224	14.97199	14.33992	13.47939	14.03622	10.01041	6.80169	12.02460	11.52945	11.15687	5.93206	5.24142	4.82939	24.03271	19.48159	15.88948
73460	3.96409	3.95279	3.51748	14.97896	14.34462	13.47583	13.97670	9.93080	6.71534	12.02093	11.52871	11.15957	5.88260	5.22530	4.82856	24.04487	19.47680	15.89645
73630	3.98215	3.98321	3.56680	14.98621	14.33655	13.47078	14.03669	10.01459	6.79287	12.03521	11.53569	11.14604	5.87061	5.15909	4.70767	24.04009	19.49536	15.89905
73790	3.84979	3.88417	3.51404	14.94926	14.33010	13.48926	14.08646	10.09108	6.87187	12.01836	11.51355	11.15037	5.92070	5.18623	4.71913	24.05269	19.47798	15.87427
73950	3.84134	3.86851	3.49641	14.96127	14.33271	13.47318	14.08897	10.07444	6.86412	12.01769	11.52503	11.15603	5.92882	5.19235	4.72309	24.02666	19.48895	15.89295	36.92	6.2	0.00	-2.04	0.01731	0.01200	0.01519	0.01814	0.01876	0.01467	0.00548	0.01519	0.02008	0.01845	0.01280	0.01631	0.01709	0.01765	0.01379	0.00569	0.01601	0.02130
74120	3.83126	3.86023	3.49101	14.96532	14.32881	13.47059	14.07694	10.07799	6.87472	12.00762	11.51938	11.14494	5.94350	5.20629	4.72862	24.04640	19.48058	15.88699
74280	3.80356	3.81693	3.44299	14.96856	14.33956	13.48518	14.05416	10.08703	6.91488	12.00821	11.52116	11.15095	6.01754	5.27525	4.79030	24.04684	19.49233	15.88945
74440	3.82200	3.80994	3.41065	14.97182	14.34035	13.48630	13.99215	10.00958	6.83346	12.01164	11.52140	11.15590	5.98589	5.28650	4.85033	24.05792	19.48104	15.88046
74610	3.93255	3.91124	3.47836	14.97037	14.33477	13.48048	13.99187	9.94095	6.73876	12.01617	11.52320	11.14931	5.90450	5.23371	4.83114	24.03772	19.48318	15.88681
74770	3.96897	3.96777	3.53740	14.96873	14.33203	13.47418	14.02014	9.97868	6.76549	12.01509	11.52102	11.14907	5.88959	5.19420	4.75057	24.05336	19.50062	15.90456
74940	3.87674	3.89315	3.50658	14.96320	14.33063	13.48603	14.05368	10.05546	6.85334	12.01475	11.51732	11.14572	5.94793	5.23204	4.78325	24.05923	19.49087	15.88648
75100	3.89112	3.89440	3.49273	14.97066	14.34211	13.48279	14.01144	9.98711	6.76982	12.01742	11.52475	11.15116	5.88970	5.20136	4.77974	24.03967	19.48556	15.89036
75270	3.93453	3.95510	3.56115	14.96556	14.32958	13.47540	14.07165	10.01649	6.77610	12.02187	11.52464	11.14976	5.84939	5.15598	4.72877	24.03837	19.48579	15.88801
75430	3.92098	3.96756	3.58922	14.96746	14.34110	13.48242	14.07309	10.03122	6.77946	12.01690	11.52475	11.15400	5.82861	5.11888	4.68270	24.04206	19.47542	15.88025
75600	3.89941	3.96621	3.60816	14.97010	14.33601	13.47577	14.13853	10.10690	6.84739	12.02676	11.52998	11.15533	5.84442	5.11404	4.64531	24.04402	19.48698	15.89480	36.92	6.1	0.00	-2.04	0.01731	0.01200	0.01519	0.01814	0.01876	0.01467	0.00548	0.01519	0.02008	0.01845	0.01280	0.01631	0.01709	0.01765	0.01379	0.00569	0.01601	0.02130
75760	3.81085	3.87002	3.53257	14.96353	14.32651	13.47515	14.13050	10.13644	6.92116	12.02041	11.52908	11.15555	5.94499	5.19414	4.70784	24.05815	19.48419	15.88931
75920	3.79454	3.81435	3.44208	14.97065	14.33721	13.47707	14.02581	10.04578	6.86412	12.01752	11.52806	11.15533	5.98838	5.27717	4.82689	24.04207	19.48333	15.89008
76090	3.90405	3.89286	3.46965	14.97163	14.33895	13.48075	13.98750	9.94698	6.73983	12.02437	11.52901	11.15642	5.88792	5.21822	4.81678	24.04337	19.48584	15.89188
76250	3.98540	4.00514	3.59390	14.97194	14.34298	13.47941	14.03721	9.99014	6.74064	12.01712	11.52385	11.15023	5.83496	5.15033	4.72690	24.05249	19.48625	15.89114
76420	3.90984	3.93607	3.54394	14.97163	14.34521	13.48300	14.05063	10.02529	6.81381	12.02060	11.52105	11.15354	5.94788	5.24728	4.80627	24.04033	19.48803	15.90200
76580	3.88951	3.87531	3.46034	14.97751	14.33382	13.46948	13.98959	9.96569	6.77638	12.03454	11.53457	11.15244	5.94303	5.27183	4.86196	24.03556	19.49682	15.90200
76750	3.96691	3.94724	3.50500	14.97017	14.33626	13.47879	13.97492	9.91469	6.69791	12.02505	11.53042	11.15356	5.86729	5.22370	4.85143	24.02320	19.48698	15.89714
76910	4.04566	4.05153	3.61227	14.97911	14.34921	13.47694	14.02255	9.92969	6.68515	12.01382	11.53242	11.15680	5.79973	5.13664	4.74181	24.02320	19.47140	15.89044
77070	3.97982	4.02982	3.64002	14.97515	14.34133	13.47914	14.08996	10.03089	6.76350	12.02418	11.53151	11.14837	5.80562	5.09952	4.65193	24.04511	19.47812	15.88963
77240	3.86643	3.93835	3.60183	14.97144	14.34118	13.48041	14.16555	10.14416	6.90005	12.01986	11.52987	11.15672	5.86451	5.10713	4.62351	24.04044	19.47671	15.88670	36.92	6.1	0.00	-2.04	0.01731	0.01200	0.01519	0.01814	0.01876	0.01467	0.00548	0.01519	0.02008	0.01845	0.01280	0.01631	0.01709	0.01765	0.01379	0.00569	0.01601	0.02130
77400	3.77554	3.83539	3.50188	14.96991	14.33637	13.48263	14.13405	10.14175	6.94559	12.02695	11.53061	11.15408	5.97675	5.21613	4.71711	24.03913	19.48576	15.88945
77570	3.76954	3.78002	3.40607	14.96400	14.33086	13.47436	13.99833	10.02960	6.85704	12.01631	11.52422	11.15182	6.00313	5.30621	4.87486	24.04934	19.48841	15.89083
77730	3.94764	3.92132	3.47728	14.97652	14.34861	13.48462	13.95993	9.89585	6.68421	12.01095	11.52957	11.15674	5.85182	5.20513	4.82848	24.02959	19.47543	15.88702
77890	4.05729	4.09054	3.67649	14.98143	14.35054	13.48724	14.06154	9.96253	6.68294	12.01962	11.53140	11.15813	5.74814	5.07019	4.66363	24.03826	19.47552	15.88330
78060	3.94691	4.03888	3.69874	14.97728	14.34760	13.48208	14.20903	10.13637	6.84024	12.02776	11.53990	11.16374	5.76247	5.02394	4.56052	24.01702	19.47470	15.88598
78220	3.81120	3.91182	3.61195	14.96882	14.33577	13.48771	14.22113	10.20924	6.95286	12.03956	11.53592	11.15128	5.91100	5.14560	4.64271	24.03566	19.48727	15.89072
78380	3.73015	3.75971	3.41080	14.97041	14.34060	13.47740	14.08048	10.12764	6.96137	12.01709	11.52165	11.14502	6.07122	5.31691	4.82045	24.03913	19.49207	15.89333
78550	3.80533	3.77917	3.37928	14.96567	14.33427	13.47815	13.96383	9.96950	6.80350	12.01222	11.51924	11.15043	5.96973	5.27225	4.84618	24.02417	19.47274	15.87189
78710	3.94103	3.92790	3.50702	14.96410	14.33974	13.47578	13.98917	9.93690	6.73308	12.01035	11.52931	11.16044	5.87042	5.19905	4.78902	24.03262	19.46699	15.87739
78880	3.95378	3.96216	3.55421	14.97933	14.34619	13.47855	14.02407	9.98298	6.76123	12.01460	11.53595	11.16888	5.84592	5.15236	4.72272	24.03174	19.47139	15.88447	36.98	6.1	0.00	-2.04	0.01731	0.01200	0.01519	0.01814	0.01876	0.01467	0.00548	0.01519	0.02008	0.01845	0.01280	0.01631	0.01709	0.01765	0.01379	0.00569	0.01601	0.02130
79040	3.90684	3.94357	3.56521	14.97794	14.33220	13.46230	14.09834	10.05636	6.80457	12.02829	11.53922	11.15772	5.84081	5.12521	4.68630	24.01614	19.47755	15.88925
79210	3.87346	3.92722	3.57370	14.96076	14.33561	13.47683	14.12566	10.06612	6.82330	12.02830	11.53169	11.14495	5.85784	5.13188	4.67324	24.04411	19.47897	15.88582
79370	3.83868	3.88589	3.53260	14.96545	14.34196	13.47521	14.09612	10.08575	6.85825	12.02558	11.53092	11.15195	5.89161	5.16108	4.70096	24.02849	19.47189	15.88688
79540	3.83777	3.87570	3.51567	14.97453	14.34557	13.47380	14.09621	10.09052	6.87515	12.02067	11.53871	11.16828	5.90759	5.18099	4.71428	24.02090	19.47445	15.88172
79700	3.82000	3.82781	3.44096	14.96424	14.33038	13.46317	14.05225	10.06135	6.88837	12.02879	11.53546	11.16053	6.02100	5.28471	4.80171	24.01137	19.49264	15.89467
79870	3.82095	3.78181	3.36626	14.98002	14.34012	13.47103	13.93374	9.96196	6.80726	12.01633	11.52196	11.14256	6.01926	5.34770	4.94557	24.05041	19.47888	15.88073
80030	4.02124	3.95913	3.48420	14.96122	14.33180	13.47516	13.90296	9.84033	6.62520	12.00045	11.51634	11.14540	5.83369	5.22005	4.87241	24.03152	19.46044	15.86787
80200	4.12243	4.13769	3.69934	14.97902	14.34508	13.47133	14.05859	9.93316	6.66330	11.99915	11.52479	11.15921	5.74086	5.07276	4.66885	24.01657	19.45497	15.87379
80360	3.96052	4.03923	3.69436	14.96857	14.33006	13.45977	14.18385	10.10846	6.81694	12.01847	11.53954	11.16396	5.77837	5.06932	4.63058	24.11778	19.47468	15.87834
80520	3.85606	3.88777	3.56375	14.89354	14.32705	13.51813	14.14654	10.11827	6.87633	12.02721	11.51344	11.10344	5.86679	5.11805	4.64397	24.06969	19.49749	15.87699	36.92	6.1	0.00	-2.04	0.01731	0.01200	0.01519	0.01814	0.01876	0.01467	0.00548	0.01519	0.02008	0.01845	0.01280	0.01631	0.01709	0.01765	0.01379	0.00569	0.01601	0.02130
80690	3.79916	3.86106	3.53670	14.95966	14.35858	13.49611	14.12022	10.12349	6.88139	12.02126	11.52971	11.16840	5.87584	5.12964	4.64916	24.02472	19.47289	15.88368
80850	3.79456	3.84184	3.49600	14.96847	14.33519	13.47192	14.07788	10.08400	6.87709	12.02622	11.52941	11.15720	5.93634	5.20578	4.73892	24.02537	19.48651	15.88955
81020	3.81593	3.81776	3.42836	14.97193	14.34429	13.48033	14.01333	10.04204	6.87042	12.02310	11.53059	11.16234	5.98552	5.25388	4.78074	24.05337	19.49017	15.88905
81180	3.83109	3.82748	3.43546	14.97248	14.34238	13.48167	13.98336	9.99131	6.80520	12.01773	11.52711	11.15910	5.94790	5.25130	4.82229	24.05076	19.48230	15.88256
81340	3.92380	3.91683	3.50543	14.97050	14.34208	13.48025	13.99671	9.95648	6.73497	12.02013	11.52746	11.15895	5.84873	5.16757	4.74806	24.03838	19.48271	15.88468
81510	3.92952	3.96550	3.57967	14.97174	14.33830	13.47625	14.07394	10.03528	6.79072	12.02292	11.52707	11.15800	5.83313	5.11745	4.66237	24.01454	19.47572	15.87877
81670	3.82748	3.87127	3.51903	14.96195	14.32951	13.46821	14.11365	10.09206	6.88572	12.01097	11.51913	11.15316	5.94605	5.20168	4.72059	24.04490	19.48468	15.88416
81840	3.80183	3.81528	3.43518	14.97026	14.33483	13.47261	13.98765	10.00957	6.82572	12.01120	11.52686	11.15540	5.95657	5.25524	4.82152	24.03556	19.47134	15.88012
82000	3.91867	3.90771	3.48627	14.97305	14.33273	13.47343	13.98288	9.94436	6.73313	12.01805	11.52716	11.15194	5.86299	5.18547	4.77509	24.01887	19.47390	15.88033
82170	3.95217	3.97773	3.58195	14.96494	14.33062	13.47216	14.05707	10.00132	6.75611	12.01517	11.52422	11.15189	5.82016	5.11878	4.68665	24.01313	19.46736	15.87660	36.92	6.1	0.00	-2.04	0.01731	0.01200	0.01519	0.01814	0.01876	0.01467	0.00548	0.01519	0.02008	0.01845	0.01280	0.01631	0.01709	0.01765	0.01379	0.00569	0.01601	0.02130
82330	3.88018	3.93077	3.57026	14.96154	14.32777	13.47378	14.10925	10.06281	6.82256	12.01913	11.52332	11.15259	5.85870	5.13997	4.68054	24.01832	19.47019	15.87412
82490	3.84129	3.88067	3.51848	14.95985	14.32715	13.46694	14.09864	10.05601	6.83508	12.01516	11.52475	11.15211	5.88184	5.15481	4.68696	24.03567	19.47242	15.87816
82660	3.83281	3.87623	3.53434	14.96201	14.32634	13.46902	14.10839	10.09080	6.84981	12.02454	11.53504	11.16473	5.85445	5.11822	4.64599	24.02764	19.46713	15.88138
82820	3.82378	3.89402	3.56737	14.96530	14.32248	13.46845	14.16142	10.12600	6.87441	12.05750	11.55371	11.17001	5.83652	5.09003	4.61153	24.01724	19.47210	15.89243
82990	3.80110	3.86719	3.54594	14.94645	14.30376	13.46564	14.15938	10.15024	6.92882	12.05344	11.53594	11.15356	5.91533	5.14088	4.63321	24.02569	19.47941	15.87048
83150	3.73533	3.77931	3.45232	14.94890	14.31814	13.46002	14.11428	10.14085	6.95239	12.01108	11.52890	11.17252	5.97927	5.20945	4.70670	24.02764	19.46950	15.87302
83310	3.76201	3.77346	3.40695	14.95475	14.31578	13.45602	14.04220	10.04574	6.86974	12.01147	11.52830	11.15667	5.98207	5.26542	4.81260	24.02547	19.47457	15.88629
83480	3.87325	3.85787	3.44425	14.95747	14.32300	13.46838	13.97635	9.94175	6.75030	12.00828	11.52126	11.14616	5.90982	5.23578	4.82287	24.03046	19.47183	15.88154
83640	3.95846	3.95806	3.53791	14.96559	14.33110	13.47776	13.98187	9.93682	6.70509	12.01747	11.52756	11.15136	5.82435	5.15629	4.75829	24.01811	19.46635	15.87293
83810	3.96798	3.99947	3.59963	14.95951	14.32858	13.47871	14.03513	9.93302	6.66952	12.02300	11.52855	11.15237	5.77519	5.13264	4.76963	24.03438	19.47608	15.87523	36.92	6.1	0.00	-2.04	0.01731	0.01200	0.01519	0.01813	0.01876	0.01467	0.00548	0.01519	0.02008	0.01845	0.01280	0.01631	0.01709	0.01765	0.01379	0.00569	0.01601	0.02130
83970	4.04839	4.09448	3.68520	14.97709	14.36760	13.50534	14.06622	9.95434	6.67971	12.00061	11.52784	11.17801	5.74558	5.06422	4.64178	24.02419	19.44807	15.87264
84130	3.91507	4.00115	3.66862	14.97726	14.33160	13.46958	14.17455	10.13959	6.84903	12.02924	11.54104	11.16440	5.78444	5.03806	4.55392	24.03937	19.47709	15.88962
84300	3.76185	3.85289	3.55342	14.96587	14.33074	13.47543	14.19975	10.21777	6.98465	12.02865	11.53759	11.16190	5.93633	5.14497	4.61795	24.05871	19.48426	15.89257
84460	3.69311	3.72421	3.39256	14.96906	14.32967	13.47859	14.09761	10.15502	6.99683	12.01853	11.53418	11.17336	6.05440	5.27137	4.75223	24.06306	19.48581	15.88655
84630	3.74596	3.74235	3.36730	14.97437	14.33997	13.47804	13.99764	10.02588	6.86497	12.01575	11.54223	11.18420	5.98756	5.26371	4.81102	24.04676	19.47750	15.89217
84790	3.87861	3.86179	3.45057	14.97483	14.32965	13.47279	13.96152	9.94048	6.75009	12.02226	11.53103	11.15339	5.91031	5.23098	4.80860	24.02852	19.48147	15.89503
84960	3.91821	3.91356	3.50066	14.97380	14.33922	13.48260	13.99649	9.97171	6.76232	12.02197	11.52985	11.15386	5.87332	5.18371	4.75233	24.03330	19.48129	15.89106
85120	3.89206	3.90601	3.51306	14.97452	14.33814	13.48474	13.99974	9.98248	6.77266	12.02011	11.53161	11.15741	5.87255	5.17736	4.73926	24.04719	19.48065	15.89018
85290	3.91576	3.95825	3.58330	14.97712	14.33975	13.48529	14.05383	9.99083	6.73208	12.03303	11.54250	11.16427	5.78095	5.08945	4.66041	24.05067	19.47928	15.88531
85450	3.90441	3.98522	3.65032	14.97063	14.33934	13.48713	14.16783	10.13001	6.84469	12.03092	11.54380	11.16768	5.78849	5.04417	4.56440	24.03318	19.47827	15.89031	36.92	6.1	0.00	-2.04	0.01731	0.01200	0.01519	0.01814	0.01876	0.01467	0.00548	0.01519	0.02008	0.01845	0.01280	0.01631	0.01709	0.01765	0.01379	0.00569	0.01601	0.02130
85610	3.75506	3.83504	3.52787	14.97461	14.34009	13.49181	14.13690	10.19086	6.97802	12.03355	11.54308	11.16606	5.96726	5.18522	4.66688	24.05576	19.48595	15.89428
85780	3.72041	3.74086	3.38613	14.97535	14.34238	13.48820	14.03127	10.06965	6.89928	12.02710	11.54204	11.17909	5.98106	5.24187	4.77327	24.04338	19.49075	15.89597
85940	3.86861	3.88018	3.49045	14.98806	14.34569	13.48376	14.00668	9.96092	6.73990	12.04865	11.55496	11.16829	5.83553	5.15273	4.73071	24.03708	19.49990	15.91034
86110	3.92304	3.96348	3.58921	14.98427	14.35540	13.50629	14.06504	10.03962	6.78719	12.03622	11.54487	11.17217	5.82421	5.11545	4.66621	24.03882	19.49253	15.90114
86270	3.84873	3.89896	3.54409	14.98921	14.35722	13.50067	14.09266	10.04896	6.80766	12.04821	11.55687	11.17976	5.86178	5.15249	4.71414	24.04707	19.49464	15.90098
86440	3.89265	3.92875	3.54799	14.98467	14.36129	13.50871	14.02706	9.97044	6.72553	12.04790	11.55004	11.18267	5.80426	5.12531	4.70806	24.05968	19.50379	15.90507
86600	3.93595	3.99053	3.62457	14.99781	14.37127	13.50961	14.12152	10.05778	6.79590	12.03877	11.55603	11.18810	5.79240	5.06175	4.59346	24.04425	19.50727	15.91319
86770	3.78803	3.86417	3.55672	14.99647	14.36002	13.50244	14.19496	10.18768	6.95376	12.04188	11.55685	11.18977	5.91408	5.13210	4.62458	24.05729	19.50421	15.91674
86930	3.72219	3.75659	3.41682	14.99475	14.35434	13.49441	14.07466	10.09019	6.91427	12.04073	11.55508	11.17778	5.99543	5.25323	4.77599	24.05729	19.49963	15.91072
87090	3.82134	3.80587	3.40902	14.99712	14.36358	13.50612	13.96501	9.95736	6.78063	12.04464	11.55426	11.18022	5.93628	5.24774	4.82113	24.05435	19.50922	15.91745	36.87	6.2	0.00	-2.04	0.01731	0.01200	0.01519	0.01814	0.01876	0.01467	0.00548	0.01519	0.02008	0.01845	0.01280	0.01631	0.01709	0.01765	0.01379	0.00569	0.01601	0.02130
87260	3.92444	3.91663	3.50635	14.99844	14.36306	13.50445	13.97929	9.95104	6.73286	12.04139	11.55414	11.18227	5.83987	5.15190	4.72959	24.04979	19.50826	15.91491
87420	3.90094	3.93118	3.55929	14.99796	14.36005	13.50390	14.08070	10.02979	6.79472	12.04190	11.55337	11.18102	5.84722	5.13159	4.68286	24.04284	19.50231	15.91170
87590	3.82713	3.86228	3.49921	14.99425	14.36080	13.49950	14.07166	10.05313	6.83691	12.03478	11.54824	11.17733	5.91267	5.18724	4.72578	24.06196	19.51280	15.92154
87750	3.83574	3.85077	3.46949	15.00126	14.36519	13.50305	14.00763	10.00375	6.80318	12.04312	11.55632	11.18328	5.91172	5.20803	4.76168	24.07263	19.51230	15.92030
87910	3.88074	3.88696	3.49408	15.00164	14.36411	13.50193	14.02637	9.98364	6.77216	12.04335	11.55837	11.18333	5.86604	5.16848	4.73770	24.05479	19.50950	15.92034
88080	3.88841	3.91453	3.52824	14.99789	14.36450	13.50475	14.04324	10.00028	6.78136	12.04510	11.55567	11.18108	5.85945	5.15360	4.71242	24.07198	19.51101	15.91946
88240	3.87032	3.90097	3.52360	15.00350	14.36911	13.50967	14.05571	10.01381	6.79363	12.04824	11.56069	11.18457	5.86593	5.15978	4.71388	24.06936	19.51266	15.92012
88410	3.86715	3.89306	3.52091	15.00415	14.36844	13.51076	14.05753	10.02471	6.79249	12.05159	11.56194	11.18832	5.86101	5.15234	4.71127	24.07960	19.52202	15.92476
88570	3.87236	3.90521	3.53459	15.00389	14.36867	13.51089	14.04985	10.01267	6.78642	12.05487	11.56078	11.18641	5.85242	5.14602	4.70245	24.07742	19.52050	15.92358
88740	3.86636	3.90133	3.53204	15.00291	14.36969	13.51447	14.05871	10.02181	6.79379	12.04995	11.55784	11.18574	5.86029	5.15845	4.72081	24.07262	19.52288	15.92818	36.92	6.0	0.00	-2.04	0.01731	0.01200	0.01519	0.01814	0.01876	0.01467	0.00548	0.01519	0.02008	0.01845	0.01280	0.01631	0.01709	0.01765	0.01379	0.00569	0.01601	0.02130
88900	3.87880	3.89981	3.51643	15.00576	14.37581	13.51796	14.02219	9.99671	6.78391	12.04569	11.56014	11.19118	5.88015	5.18497	4.74913	24.06696	19.51802	15.92979
89070	3.88524	3.89987	3.50844	15.00836	14.36795	13.51059	14.02439	9.99307	6.77077	12.05909	11.56279	11.18050	5.86710	5.16755	4.73650	24.07588	19.52352	15.92558
89230	3.89628	3.92538	3.54434	14.99851	14.36818	13.51657	14.04892	9.96451	6.72298	12.05268	11.55735	11.18574	5.81170	5.13245	4.72824	24.06326	19.51582	15.91540
89390	3.97293	4.02938	3.65343	15.00265	14.37690	13.52159	14.08044	9.98803	6.70697	12.05519	11.55926	11.18841	5.73225	5.03536	4.60473	24.08569	19.52201	15.91630
89560	3.88481	3.98018	3.66543	15.00298	14.37122	13.50937	14.21241	10.16967	6.87892	12.05621	11.56421	11.19235	5.79168	5.03306	4.54430	24.06173	19.52068	15.92864
89720	3.72891	3.80951	3.51021	15.00724	14.37341	13.51404	14.17105	10.21894	7.01550	12.05594	11.56398	11.18838	6.00591	5.20781	4.66913	24.07066	19.52307	15.92522
89890	3.68226	3.68909	3.33543	15.00200	14.37113	13.51494	14.01100	10.07741	6.93005	12.04630	11.56030	11.20125	6.04832	5.30899	4.83631	24.09617	19.51628	15.91469
90050	3.85563	3.82441	3.40885	15.00518	14.36896	13.49898	13.92079	9.91789	6.72232	12.04613	11.56319	11.19204	5.87708	5.20590	4.80532	24.06521	19.51022	15.91671
90210	3.98506	4.00394	3.59060	15.00114	14.36692	13.51032	14.01693	9.93850	6.69193	12.04471	11.54828	11.17848	5.78935	5.10484	4.68238	24.06478	19.51531	15.92010
90380	3.89497	3.94727	3.58967	15.00582	14.37202	13.50285	14.12342	10.09932	6.85003	12.03997	11.55057	11.17846	5.83977	5.10093	4.62625	24.07493	19.51239	15.91704	36.92	6.1	0.00	-2.04	0.01731	0.01200	0.01519	0.01814	0.01876	0.01467	0.00548	0.01519	0.02008	0.01845	0.01280	0.01631	0.01709	0.01765	0.01379	0.00569	0.01601	0.02130
90540	3.77060	3.81124	3.46890	15.00231	14.36711	13.50692	14.06780	10.09352	6.89970	12.04515	11.55299	11.18240	5.97003	5.23306	4.76773	24.06078	19.50391	15.91125
90710	3.85016	3.84223	3.43508	14.99724	14.36274	13.51071	13.92804	9.88149	6.67922	12.06159	11.55561	11.18299	5.86354	5.23308	4.88273	24.09041	19.51706	15.90969
90870	4.12414	4.13955	3.68995	15.00491	14.39072	13.53180	13.96213	9.85621	6.58353	12.04444	11.55601	11.19962	5.65381	5.00719	4.65234	24.08910	19.51216	15.90935
91040	4.06076	4.19133	3.87216	15.00582	14.37951	13.52331	14.29374	10.14955	6.77389	12.05888	11.56249	11.19252	5.66762	4.95430	4.48187	24.10308	19.52583	15.91917
91200	3.77737	3.90812	3.63228	14.99875	14.38100	13.52887	14.23961	10.23345	6.99030	12.04154	11.54533	11.18012	5.95463	5.17036	4.65712	24.07842	19.51120	15.91417
91360	3.72108	3.73856	3.37401	15.01645	14.38078	13.51089	14.00665	10.03224	6.86701	12.04590	11.55791	11.18180	5.98536	5.26269	4.80626	24.05100	19.50570	15.91754
91530	3.88896	3.88357	3.48012	15.00286	14.37014	13.51386	13.98508	9.96007	6.74343	12.05896	11.56240	11.18874	5.85295	5.16183	4.73677	24.05687	19.51110	15.91795
91690	3.89993	3.93122	3.55335	15.00295	14.37161	13.51269	14.06761	10.04027	6.81233	12.05455	11.55831	11.18826	5.86779	5.14339	4.67498	24.06753	19.50840	15.91872
91850	3.80233	3.82949	3.46652	15.00467	14.36967	13.51321	14.04773	10.06785	6.87253	12.05719	11.56161	11.19155	5.96341	5.23350	4.76849	24.08169	19.51546	15.92105
92020	3.84284	3.83623	3.43893	15.00031	14.36734	13.50705	13.96431	9.96319	6.76945	12.04401	11.55870	11.18936	5.89540	5.20573	4.78202	24.06763	19.51463	15.91781	36.92	6.1	0.00	-2.04	0.01731	0.01200	0.01519	0.01814	0.01876	0.01467	0.00548	0.01519	0.02008	0.01845	0.01280	0.01631	0.01709	0.01765	0.01379	0.00569	0.01601	0.02130
92180	3.93885	3.96014	3.56260	14.99866	14.36470	13.50325	14.02433	9.96675	6.71568	12.05244	11.56051	11.18626	5.78094	5.09193	4.67553	24.07417	19.51137	15.91867
92350	3.92551	4.00525	3.65519	14.99675	14.36588	13.51339	14.14198	10.08175	6.80226	12.06244	11.55979	11.18430	5.79139	5.06221	4.60117	24.07940	19.51784	15.91858
92510	3.79324	3.84618	3.50432	15.00464	14.37811	13.51907	14.09291	10.11364	6.93408	12.05266	11.56128	11.19371	6.01607	5.27096	4.77405	24.08005	19.52045	15.93627
92670	3.77154	3.74181	3.34164	15.00670	14.36293	13.50628	13.93524	9.95103	6.81477	12.06670	11.56456	11.18323	6.02313	5.33843	4.91538	24.07765	19.53124	15.92913
92840	3.96781	3.92426	3.47025	14.99964	14.37442	13.51599	13.90616	9.86711	6.65770	12.04523	11.55747	11.19025	5.84151	5.19752	4.81551	24.06263	19.51853	15.92596
93000	4.00387	4.01497	3.60392	15.01696	14.38067	13.51369	14.02768	9.97284	6.73226	12.05268	11.56240	11.18648	5.80737	5.11374	4.67941	24.06110	19.52252	15.93097
93170	3.85619	3.88831	3.51484	15.01155	14.37781	13.51839	14.06000	10.06196	6.86146	12.06340	11.56686	11.18646	5.94811	5.22177	4.75615	24.08637	19.52917	15.93393
93330	3.82258	3.81125	3.41087	15.00395	14.37109	13.51307	13.95594	9.96180	6.78931	12.05785	11.56240	11.19208	5.95170	5.26479	4.84233	24.07722	19.53299	15.93362
93500	3.94945	3.93696	3.51657	15.01249	14.37850	13.51702	13.97954	9.92346	6.69826	12.05707	11.56835	11.19513	5.83234	5.16774	4.76588	24.07242	19.52578	15.92963
93660	3.94009	3.95553	3.55174	15.02050	14.38591	13.51772	14.05757	10.02447	6.81438	12.06102	11.57534	11.19445	5.90154	5.17993	4.70996	24.08997	19.53865	15.94579	36.87	6.1	0.00	-2.04	0.01731	0.01200	0.01519	0.01814	0.01876	0.01467	0.00548	0.01519	0.02008	0.01845	0.01280	0.01631	0.01709	0.01765	0.01379	0.00569	0.01601	0.02130
93830	3.80151	3.80936	3.43211	14.99980	14.37134	13.52562	14.01808	10.04039	6.86140	12.06328	11.55855	11.19249	5.97580	5.25615	4.79755	24.10372	19.53116	15.92143
93990	3.86692	3.85549	3.44554	15.01343	14.38664	13.52149	13.96256	9.93163	6.73441	12.05445	11.57003	11.20194	5.90152	5.24180	4.85527	24.08560	19.52079	15.92693
94160	4.01782	4.00751	3.56368	15.01963	14.39112	13.52404	13.96694	9.87604	6.63878	12.05522	11.56989	11.20168	5.78138	5.14024	4.76921	24.06143	19.51762	15.92603
94320	4.02003	4.06680	3.67202	15.02759	14.39268	13.52164	14.11613	10.01177	6.73373	12.06046	11.57618	11.20163	5.75538	5.04881	4.60417	24.07209	19.52547	15.93364
94490	3.85909	3.94851	3.62397	15.01578	14.38030	13.52089	14.17921	10.14449	6.88513	12.06549	11.57471	11.20101	5.84399	5.09040	4.60869	24.09367	19.53033	15.93710
94650	3.76726	3.82354	3.49302	15.01863	14.38718	13.52742	14.10531	10.11008	6.89906	12.07229	11.58009	11.20374	5.94081	5.19753	4.72349	24.07035	19.53134	15.93259
94820	3.81141	3.82048	3.43955	15.02466	14.39332	13.53165	14.01961	10.02321	6.83591	12.07225	11.58067	11.20703	5.94631	5.22767	4.77356	24.08800	19.53387	15.93817
94980	3.86081	3.85741	3.46142	15.02270	14.38752	13.52462	13.99992	9.98580	6.79210	12.06685	11.57736	11.20563	5.91346	5.21276	4.76779	24.07383	19.53176	15.93443
95150	3.88441	3.89044	3.50043	15.01990	14.38541	13.51924	14.03330	9.98892	6.77100	12.06269	11.57627	11.20735	5.85926	5.16507	4.73698	24.08277	19.53415	15.93910
95310	3.89260	3.90809	3.51883	15.02832	14.39361	13.52796	14.05192	10.01575	6.80470	12.07044	11.58181	11.20423	5.88657	5.17515	4.73437	24.10104	19.53704	15.94478	36.98	6.0	0.00	-2.04	0.01731	0.01200	0.01519	0.01814	0.01876	0.01467	0.00548	0.01519	0.02008	0.01845	0.01280	0.01631	0.01709	0.01765	0.01379	0.00569	0.01601	0.02130
95470	3.87520	3.90558	3.52384	15.02278	14.39253	13.53031	14.02355	10.00362	6.77258	12.07161	11.58209	11.20737	5.84880	5.14309	4.71377	24.06986	19.53874	15.93960
95640	3.89616	3.93606	3.56070	15.02360	14.39331	13.53126	14.07460	10.02072	6.78446	12.06891	11.57876	11.20382	5.84043	5.13090	4.68745	24.09493	19.52974	15.93861
95800	3.86062	3.90095	3.53354	15.02805	14.39612	13.53119	14.04587	10.04127	6.81603	12.07161	11.58230	11.20659	5.88310	5.16700	4.71447	24.07487	19.53553	15.93967
95970	3.85438	3.87711	3.50035	15.02410	14.38786	13.52463	14.04060	10.00798	6.79343	12.06840	11.58127	11.20664	5.88298	5.17581	4.73705	24.08315	19.53755	15.94330
96130	3.88841	3.91454	3.53207	15.03040	14.39495	13.52926	14.04664	10.02389	6.79361	12.06508	11.57983	11.20675	5.85391	5.13626	4.67840	24.09231	19.53888	15.94355
96290	3.84019	3.89264	3.54318	15.02753	14.39549	13.53312	14.12059	10.11247	6.88162	12.07217	11.58803	11.21860	5.87980	5.13040	4.64794	24.09187	19.53640	15.94430
96460	3.79162	3.83258	3.48031	15.03326	14.39635	13.53474	14.07450	10.05775	6.85752	12.08539	11.58793	11.20645	5.95273	5.23125	4.77642	24.10388	19.54472	15.95158
96620	3.85031	3.84246	3.44171	15.03553	14.40238	13.53545	13.98820	9.98014	6.79032	12.07673	11.58651	11.21220	5.91180	5.21124	4.77595	24.11765	19.54619	15.95145
96790	3.89933	3.90946	3.51985	15.03347	14.39927	13.53770	14.02843	9.99834	6.76880	12.07526	11.59010	11.21490	5.84412	5.13986	4.70313	24.09907	19.54578	15.94872
96950	3.88390	3.92482	3.56387	15.03717	14.40186	13.53514	14.07683	10.05650	6.81470	12.07260	11.58839	11.21295	5.84351	5.11425	4.64860	24.10316	19.54650	15.95295	36.92	5.9	0.00	-2.04	0.01731	0.01200	0.01519	0.01813	0.01876	0.01467	0.00548	0.01519	0.02008	0.01845	0.01280	0.01631	0.01709	0.01765	0.01379	0.00569	0.01601	0.02130
97120	3.80747	3.85982	3.51962	15.03828	14.40238	13.53933	14.11568	10.12519	6.89853	12.07689	11.59067	11.22025	5.90372	5.14834	4.67009	24.10578	19.54411	15.95129
97280	3.81259	3.85513	3.49618	15.04514	14.40052	13.53412	14.04848	10.00483	6.78679	12.10103	11.60107	11.20791	5.89093	5.20612	4.78837	24.11322	19.55451	15.95206
97440	3.93976	3.94517	3.53484	15.04106	14.42069	13.55121	13.99585	9.94401	6.70417	12.07595	11.58846	11.22162	5.79530	5.11186	4.69953	24.10688	19.53956	15.94539
97610	3.95194	4.02184	3.67841	15.04128	14.40348	13.53948	14.17623	10.10117	6.79811	12.08637	11.60266	11.23188	5.72989	4.99039	4.51675	24.09530	19.54664	15.95806
97770	3.78462	3.90975	3.64132	15.03367	14.38954	13.52751	14.29677	10.28162	7.00472	12.10153	11.61153	11.22552	5.85743	5.05211	4.52355	24.08483	19.54797	15.96260
97940	3.66242	3.72850	3.43197	15.02578	14.38745	13.53141	14.15526	10.23534	7.06998	12.09279	11.59125	11.20876	6.08421	5.27078	4.71455	24.09617	19.54365	15.94895
98100	3.66276	3.65368	3.28720	15.03434	14.40579	13.54231	13.99146	10.08007	6.97898	12.07082	11.58052	11.21866	6.14961	5.39939	4.89728	24.12613	19.54774	15.94187
98270	3.80943	3.74272	3.31432	15.03590	14.41253	13.53928	13.88933	9.90510	6.76151	12.06430	11.58392	11.22396	5.99671	5.33369	4.93194	24.11387	19.54434	15.94906
98430	4.01114	3.96459	3.50194	15.04257	14.40798	13.53833	13.94017	9.87194	6.66230	12.08201	11.59044	11.21366	5.81031	5.15396	4.76430	24.09683	19.54876	15.95063
98590	3.99995	4.05240	3.68049	15.03664	14.40542	13.54030	14.13313	10.04837	6.74832	12.08632	11.59659	11.22347	5.72950	5.01300	4.56279	24.09223	19.54137	15.95153	36.92	6.2	0.00	-2.04	0.01731	0.01200	0.01519	0.01813	0.01876	0.01467	0.00548	0.01519	0.02008	0.01845	0.01280	0.01631	0.01709	0.01765	0.01379	0.00569	0.01601	0.02130
98760	3.83660	3.94267	3.64181	15.03609	14.39737	13.53444	14.22528	10.20045	6.93252	12.09648	11.59559	11.21441	5.85480	5.07761	4.57951	24.09528	19.54592	15.94658
98920	3.73407	3.79946	3.48617	15.03155	14.40136	13.53574	14.13042	10.14303	6.92213	12.09119	11.59928	11.22231	5.92025	5.16242	4.67692	24.09310	19.54096	15.94815
99080	3.79750	3.84041	3.49824	15.03045	14.39150	13.52891	14.09170	10.08011	6.83677	12.09479	11.60572	11.23262	5.82914	5.08366	4.60929	24.11976	19.54763	15.96464
99250	3.80533	3.88478	3.58165	15.04290	14.39085	13.52580	14.21912	10.21479	6.98036	12.10109	11.60826	11.22312	5.90296	5.10491	4.56969	24.09659	19.55379	15.95948
99410	3.64907	3.68555	3.36999	15.04033	14.40211	13.53987	14.11708	10.18898	7.06420	12.07981	11.59114	11.21909	6.16234	5.38067	4.85418	24.13093	19.55347	15.95085
