WetView ver 7.1	07-17-2018	11:38:50
AC9 Absorption and Attenuation Meter
00000266		; Serial number
2	; structure version number
Reserved
0.000000	0.000000		; Depth calibration
19200			; Baud rate
0.100000			; Path length (meters)
31			; number of temperature calibration bins
				12.59339	13.44920	14.48425	15.49668	16.50852	17.49564	18.50545	19.52458	20.50176	21.48889	22.47318	23.48707	24.50962	25.49370	26.49784	27.51372	28.50746	29.47237	30.47938	31.50214	32.50470	33.49235	34.50337	35.50914	36.50618	37.52058	38.51018	39.51308	40.49994	41.49866	42.47204	; temperature bins
a650	Blue	20.34952		-0.00383	-0.00415	-0.00430	-0.00391	-0.00363	-0.00317	-0.00269	-0.00237	-0.00179	-0.00130	-0.00099	-0.00071	-0.00015	0.00000	0.00004	-0.00001	0.00015	0.00036	0.00058	0.00101	0.00161	0.00132	0.00160	0.00169	0.00242	0.00273	0.00336	0.00365	0.00427	0.00566	0.00670		; offset and temperature correction info
a676	Green	20.51193		-0.00398	-0.00384	-0.00360	-0.00306	-0.00302	-0.00255	-0.00235	-0.00212	-0.00163	-0.00136	-0.00118	-0.00089	-0.00029	0.00000	0.00068	0.00082	0.00099	0.00137	0.00145	0.00212	0.00260	0.00252	0.00321	0.00354	0.00457	0.00535	0.00617	0.00648	0.00742	0.00887	0.01002		; offset and temperature correction info
a715	Brown	20.23230		-0.00421	-0.00394	-0.00391	-0.00291	-0.00264	-0.00192	-0.00204	-0.00179	-0.00188	-0.00239	-0.00180	-0.00187	-0.00099	0.00000	0.00084	0.00162	0.00188	0.00224	0.00321	0.00381	0.00466	0.00528	0.00588	0.00696	0.00859	0.01041	0.01148	0.01282	0.01333	0.01456	0.01617		; offset and temperature correction info
c510	Red	20.40042		-0.00261	-0.00247	-0.00258	-0.00225	-0.00203	-0.00197	-0.00199	-0.00203	-0.00154	-0.00103	-0.00069	-0.00019	-0.00007	0.00000	0.00011	-0.00021	-0.00042	-0.00056	-0.00040	0.00011	0.00036	0.00050	0.00077	0.00079	0.00050	0.00042	0.00043	0.00092	0.00147	0.00200	0.00232		; offset and temperature correction info
c532	Magenta	20.40760		-0.00248	-0.00265	-0.00278	-0.00279	-0.00296	-0.00292	-0.00238	-0.00206	-0.00129	-0.00096	-0.00092	-0.00052	-0.00009	0.00000	0.00007	-0.00049	-0.00136	-0.00107	-0.00079	-0.00065	-0.00074	-0.00105	-0.00152	-0.00192	-0.00236	-0.00269	-0.00252	-0.00233	-0.00172	-0.00128	-0.00067		; offset and temperature correction info
c555	Black	20.50654		-0.00053	-0.00063	-0.00106	-0.00094	-0.00068	-0.00055	-0.00053	-0.00039	-0.00028	-0.00025	-0.00011	-0.00035	-0.00007	0.00000	-0.00037	-0.00055	-0.00036	-0.00014	0.00019	0.00044	0.00032	0.00040	0.00050	0.00028	0.00014	0.00013	0.00030	0.00073	0.00117	0.00176	0.00241		; offset and temperature correction info
a412	LtBlue	17.15231		-0.01972	-0.01823	-0.01612	-0.01381	-0.01272	-0.01080	-0.00959	-0.00866	-0.00710	-0.00532	-0.00354	-0.00148	-0.00028	0.00000	0.00176	0.00297	0.00394	0.00440	0.00453	0.00487	0.00804	0.00856	0.01065	0.01248	0.01388	0.01439	0.01659	0.01881	0.02256	0.02450	0.02719		; offset and temperature correction info
a440	LtGreen	18.00171		-0.00729	-0.00642	-0.00581	-0.00502	-0.00426	-0.00349	-0.00244	-0.00218	-0.00179	-0.00101	-0.00046	-0.00006	0.00036	0.00000	0.00040	0.00045	0.00030	-0.00015	-0.00024	-0.00035	0.00012	-0.00013	-0.00033	-0.00089	-0.00142	-0.00189	-0.00231	-0.00205	-0.00140	-0.00140	-0.00146		; offset and temperature correction info
a488	Yellow	18.86491		-0.00113	-0.00102	-0.00106	-0.00064	-0.00027	-0.00020	-0.00030	-0.00037	-0.00047	-0.00059	-0.00052	-0.00012	0.00008	0.00000	0.00025	0.00012	-0.00013	-0.00043	-0.00065	-0.00076	-0.00025	0.00010	0.00090	0.00111	0.00113	0.00104	0.00073	0.00068	0.00120	0.00186	0.00258		; offset and temperature correction info
c650	Blue	20.46075		-0.00145	-0.00097	-0.00092	-0.00139	-0.00185	-0.00196	-0.00237	-0.00266	-0.00238	-0.00163	-0.00083	-0.00041	-0.00010	0.00000	0.00005	-0.00001	0.00015	0.00034	0.00029	0.00065	0.00101	0.00164	0.00126	0.00156	0.00175	0.00270	0.00287	0.00371	0.00407	0.00473	0.00534		; offset and temperature correction info
c676	Green	20.10118		-0.00170	-0.00144	-0.00149	-0.00177	-0.00188	-0.00194	-0.00198	-0.00196	-0.00177	-0.00156	-0.00140	-0.00091	-0.00033	0.00000	0.00050	0.00092	0.00110	0.00141	0.00167	0.00199	0.00216	0.00265	0.00269	0.00289	0.00315	0.00374	0.00367	0.00408	0.00486	0.00561	0.00646		; offset and temperature correction info
c715	Brown	19.91219		-0.01201	-0.01097	-0.00859	-0.00680	-0.00651	-0.00592	-0.00535	-0.00440	-0.00387	-0.00303	-0.00222	-0.00153	-0.00028	0.00000	0.00093	0.00149	0.00247	0.00322	0.00330	0.00427	0.00373	0.00464	0.00536	0.00551	0.00643	0.00733	0.00779	0.00884	0.00899	0.01021	0.01120		; offset and temperature correction info
a510	Red	19.21192		0.00201	0.00193	0.00158	0.00098	0.00089	0.00049	0.00011	-0.00016	-0.00016	-0.00005	0.00028	0.00025	0.00006	0.00000	0.00035	-0.00022	-0.00023	-0.00080	-0.00144	-0.00154	-0.00153	-0.00204	-0.00220	-0.00219	-0.00190	-0.00128	-0.00069	-0.00018	0.00068	0.00152	0.00241		; offset and temperature correction info
a532	Magenta	19.41084		-0.00097	-0.00072	-0.00060	-0.00081	-0.00062	-0.00071	-0.00040	0.00020	0.00028	0.00043	0.00000	-0.00035	0.00007	0.00000	-0.00011	-0.00059	-0.00080	-0.00098	-0.00137	-0.00162	-0.00163	-0.00130	-0.00073	-0.00018	0.00090	0.00185	0.00175	0.00247	0.00291	0.00327	0.00349		; offset and temperature correction info
a555	Black	19.69776		0.00171	0.00183	0.00183	0.00186	0.00191	0.00170	0.00115	0.00131	0.00097	0.00073	0.00060	0.00013	0.00015	0.00000	0.00014	-0.00029	-0.00066	-0.00082	-0.00116	-0.00139	-0.00134	-0.00167	-0.00119	-0.00093	-0.00048	0.00053	0.00111	0.00095	0.00178	0.00206	0.00273		; offset and temperature correction info
c412	LtBlue	19.91180		-0.02051	-0.01853	-0.01589	-0.01311	-0.01059	-0.00877	-0.00705	-0.00581	-0.00413	-0.00231	-0.00098	-0.00066	-0.00011	0.00000	-0.00013	-0.00085	-0.00170	-0.00170	-0.00302	-0.00330	-0.00429	-0.00551	-0.00626	-0.00775	-0.00978	-0.01181	-0.01113	-0.01108	-0.01116	-0.01192	-0.01291		; offset and temperature correction info
c440	LtGreen	20.06241		-0.01064	-0.00992	-0.00892	-0.00766	-0.00639	-0.00531	-0.00478	-0.00384	-0.00287	-0.00187	-0.00102	-0.00063	-0.00023	0.00000	-0.00007	-0.00053	-0.00090	-0.00119	-0.00169	-0.00197	-0.00226	-0.00257	-0.00260	-0.00289	-0.00394	-0.00470	-0.00481	-0.00493	-0.00520	-0.00580	-0.00620		; offset and temperature correction info
c488	Yellow	20.35984		-0.01125	-0.01082	-0.00966	-0.00833	-0.00726	-0.00661	-0.00579	-0.00500	-0.00389	-0.00278	-0.00167	-0.00113	-0.00041	0.00000	0.00055	0.00121	0.00187	0.00226	0.00222	0.00251	0.00281	0.00359	0.00414	0.00427	0.00401	0.00404	0.00486	0.00563	0.00638	0.00684	0.00718		; offset and temperature correction info
0.003500	0.004000	0.015000	0.020000	0.015000	0.020000	2500.000000	2000.000000	1000.000000	; maxANoise	maxCNoise	maxADifference	maxCDifference	minACounts	minCCounts	minRCounts	maxTempSdev	maxDepthSdev
0			; auxilliary capabilities
1			; acquisition binsize
0	3.51413	6.11119	4.59315	15.06737	5.02700	8.46098	15.16860	10.39837	9.73399	11.30199	12.55372	9.36391	3.71274	5.09079	4.05044	20.43422	17.93493	19.34286	25.09	6.0	0.00	7.38	0.01275	0.01290	0.01670	0.00776	0.00578	0.00634	0.00468	0.01267	0.01688	0.00673	0.00685	0.00887	0.01491	0.01097	0.01199	0.00217	0.00615	0.00864
160	3.65001	5.77812	7.76490	21.16177	22.31888	18.84835	12.39182	10.43932	11.15850	25.32643	30.65962	18.95076	7.55451	5.91718	5.49839	40.36045	20.49323	21.44714
330	9.32867	10.79424	13.03631	12.65692	21.26750	13.66037	15.46924	14.79615	12.29069	26.21030	9.40522	20.42207	12.15886	10.50019	13.32237	28.11234	14.00680	16.59472
490	11.15377	10.00168	8.65816	20.01627	24.50971	25.81591	12.24673	9.83845	12.02694	11.34225	17.54660	9.31361	4.55258	7.63342	10.40231	16.55926	14.02977	15.80500
650	6.89536	7.25813	5.78718	12.55689	17.99957	25.11578	14.69797	10.99216	8.64802	13.34868	13.25944	10.50656	11.77746	8.69780	8.33242	14.28564	24.33035	16.63056
820	4.04771	5.76737	3.63648	10.60647	18.40306	11.58574	8.99264	8.38759	9.80409	11.48645	13.03054	25.93336	8.13937	6.80858	5.02170	24.51017	14.75234	26.06448
980	7.50413	8.26016	9.50419	16.09891	16.00614	22.32311	13.21035	10.87522	6.92176	20.66055	14.91983	16.07990	5.49817	5.76040	8.16845	11.48567	12.31212	12.37687
1150	6.80578	6.80453	6.68898	15.27434	17.22493	12.17630	9.49059	10.63306	6.60740	7.70122	14.03712	14.39475	6.79835	6.80831	5.86375	11.18453	8.47455	9.45966
1310	7.12169	9.23336	7.38627	6.16348	5.52571	5.15179	12.31611	11.46054	8.45346	3.40305	6.74445	5.25951	6.94916	7.47078	8.38249	8.43364	7.40746	7.00671
1480	3.71803	4.78180	2.17858	13.15309	7.06478	6.46834	11.38108	6.97797	6.01212	10.76028	5.25320	7.34498	5.75949	4.91905	3.44098	14.94171	14.38826	12.54033
1640	4.50869	5.31541	6.56791	19.81652	11.74187	10.35997	11.44499	10.25242	7.05499	11.26148	11.21189	10.80956	11.45083	8.51813	8.62104	17.64296	12.22370	12.96149	25.09	6.1	0.00	7.37	0.01275	0.01290	0.01670	0.00776	0.00578	0.00633	0.00468	0.01267	0.01688	0.00673	0.00685	0.00887	0.01491	0.01097	0.01199	0.00217	0.00615	0.00864
1810	7.03243	4.80537	3.49422	15.67168	9.81801	10.56475	11.68614	7.51684	5.84104	6.36925	15.66190	21.73477	6.05693	5.72051	9.49933	20.48991	29.58450	29.24276
1970	9.36893	8.93923	9.50262	44.61599	36.10929	33.90699	15.58402	11.30377	6.22171	38.03484	48.46194	18.50864	11.08783	10.00864	10.29063	45.91268	33.56190	25.56132
2130	10.39278	9.00232	8.31683	19.51201	20.79205	30.53503	12.17538	10.39646	11.49666	15.13941	8.41465	23.32168	14.54112	10.37403	9.81654	9.71197	9.99995	15.33891
2300	6.30768	6.34359	6.82198	14.56735	18.34200	16.83162	13.49065	9.25047	9.12365	17.85488	14.10195	20.57939	11.28419	8.59378	8.98881	27.42080	13.04833	10.09548
2460	5.31237	6.60578	5.84961	9.92539	8.32521	20.31570	10.32280	10.80077	9.71083	14.27939	6.33954	8.82725	8.87352	9.96520	11.15871	15.78358	31.83188	24.23188
2630	6.73625	9.53460	7.97238	12.17648	23.99147	24.24590	9.47574	13.16767	11.07565	36.85786	23.13600	18.09078	8.88379	8.70725	9.35600	31.43480	16.24299	22.76014
2790	10.87986	9.18891	6.87701	25.67981	28.32285	23.97779	10.70871	9.43706	9.77102	12.41394	8.77485	13.31906	6.24140	4.86992	5.02618	28.74290	17.43634	15.78960
2950	6.82611	6.57181	5.12890	26.26815	23.81551	13.71037	8.12530	12.19134	11.15044	28.35091	12.83326	15.90299	11.05275	10.03432	7.83000	29.42098	30.69835	37.66896
3120	5.53161	9.26661	5.49810	23.01759	24.61108	25.71969	10.38816	7.30909	7.97742	8.68959	10.69990	13.28313	7.56492	7.16090	7.74275	20.41656	12.75325	8.92754
3280	9.12062	6.58823	5.30539	8.15034	6.81225	5.60132	9.37845	6.89952	5.29130	6.19640	10.29405	8.33058	9.94635	7.07752	5.88211	10.63043	8.34959	15.20498	25.15	6.2	0.00	7.35	0.01275	0.01290	0.01669	0.00776	0.00578	0.00634	0.00468	0.01267	0.01688	0.00673	0.00685	0.00887	0.01491	0.01097	0.01199	0.00217	0.00615	0.00864
3450	6.99864	6.19750	6.61167	9.39984	16.44135	10.43153	14.38805	10.04996	7.07442	14.78832	6.76230	9.96207	5.87107	3.19368	5.81232	12.57975	7.43964	9.75224
3610	5.81490	7.51415	9.88055	7.90863	9.98090	12.30885	12.76131	9.84165	4.64583	17.86667	8.83099	20.13815	5.40591	4.84010	3.05795	16.58397	12.72320	11.26710
3770	5.42954	4.77909	9.19397	22.21236	31.71969	24.43728	13.30900	10.20098	9.88862	31.11846	30.56231	41.50529	9.61214	7.73867	7.48320	28.44536	29.37639	43.98746
3940	7.02871	8.02937	8.52989	26.08116	24.00606	14.79959	10.51252	8.65417	5.62643	16.64056	17.00160	7.10030	5.73687	7.47105	8.01810	12.20574	18.68678	13.40183
4100	3.79606	6.89272	7.68962	8.98690	6.91684	4.29423	10.26751	11.32804	10.11178	11.26919	20.99779	15.83125	6.33560	8.29557	7.16276	11.39999	13.09244	16.71922
4270	8.94054	8.21290	8.45307	10.52677	11.48668	13.38389	14.55807	11.73911	11.41486	13.53556	11.82455	9.74309	8.25060	6.36247	6.80906	20.75304	24.63027	12.99265
4430	8.60023	9.22982	5.72557	12.67751	7.58860	6.61960	11.60737	10.77057	9.72859	10.25004	14.33564	13.72552	7.66712	9.95660	10.56710	12.27221	9.96079	6.26817
4600	7.35399	7.79226	8.40472	9.55972	15.87477	11.25087	16.90708	10.82250	11.41806	17.92871	22.85914	21.51222	6.86009	7.49867	8.92187	34.05766	19.16619	28.60972
4760	5.88785	4.74717	5.26065	11.69088	16.93181	8.55355	11.06209	9.63510	7.38727	16.36206	20.09895	21.29586	4.38362	5.39589	4.91685	21.04788	17.02107	19.66157
4930	3.21170	4.17352	6.57370	15.71173	13.54456	28.26792	11.03758	9.74658	6.05175	18.83902	38.53915	17.95505	7.26412	6.56369	4.11760	18.16236	21.45617	21.84281	25.09	6.2	0.00	7.38	0.01275	0.01290	0.01669	0.00776	0.00578	0.00633	0.00468	0.01267	0.01688	0.00673	0.00685	0.00887	0.01491	0.01097	0.01199	0.00217	0.00615	0.00864
5090	6.54403	6.63651	6.26209	16.85891	19.86701	14.30770	9.65042	11.43479	11.08176	14.73642	15.33540	18.19688	9.30732	8.50401	5.74008	22.27020	18.12610	14.47050
5260	9.11612	7.80925	7.60092	15.51221	18.64044	9.44881	9.96317	7.62380	5.94970	19.14132	29.90036	22.29318	10.15975	8.74150	10.32830	23.18075	18.27937	23.56206
5420	8.53760	7.28329	6.30043	11.09465	16.07285	9.39994	11.03854	9.01298	5.12939	9.01709	15.54145	19.14308	7.10597	7.67180	10.13130	15.13183	12.50004	10.68199
5580	9.66761	8.27815	9.00110	15.69108	16.19684	20.55307	8.96043	9.28531	3.48298	11.71047	8.99786	8.53670	4.97603	9.65350	8.63610	34.94465	19.87236	11.77257
5750	9.51526	9.84717	11.86058	24.88469	31.84495	13.45193	18.71281	13.22157	13.36287	40.37338	24.02932	16.22533	11.73183	6.33660	8.57052	23.04452	19.93378	26.13644
5910	15.08694	10.45341	10.81055	29.76639	21.73224	19.17013	16.10810	13.26398	8.33827	42.86136	28.70612	32.21887	6.76580	8.37416	7.62605	45.47434	44.95089	38.61272
6080	8.21024	9.93500	9.46567	27.42625	23.25303	16.40482	15.79764	10.65038	10.41595	13.83419	21.41880	23.94732	7.62427	8.26498	7.52602	25.65017	16.25445	15.99100
6240	7.38126	8.32029	8.31546	11.42090	14.40717	22.94542	13.50085	15.39397	13.02187	10.14086	7.85780	10.14555	13.07724	13.69314	9.73686	20.57318	22.08746	37.30209
6410	6.86731	9.64628	6.94788	28.30580	43.88230	43.71944	14.43506	12.82654	11.76828	12.36016	16.54400	22.33384	11.37709	11.96705	10.29245	32.48989	28.93010	23.25996
6570	9.90676	9.04134	8.10438	16.04293	15.07806	16.88658	12.57519	8.16133	6.51070	13.67487	20.14616	13.14836	3.76416	5.08874	9.34422	16.98867	20.68880	19.83828	25.15	6.1	0.00	7.37	0.01275	0.01290	0.01669	0.00776	0.00577	0.00633	0.00468	0.01267	0.01688	0.00673	0.00684	0.00887	0.01491	0.01097	0.01199	0.00217	0.00615	0.00864
6740	9.27851	9.13595	9.45147	13.90798	8.42552	18.78390	14.88682	14.44097	7.72353	15.19871	16.98930	11.75437	9.30016	7.36076	8.00511	20.14179	13.42135	13.31457
6900	2.83357	3.67102	6.03790	17.46457	19.96634	18.54069	11.10919	6.71263	8.61854	21.48181	19.00111	20.74838	6.26280	9.09375	8.67117	30.47704	15.91633	14.78732
7070	9.09356	8.74578	8.23107	17.36304	18.26545	11.03906	9.54958	15.11149	6.86150	17.31634	10.09112	8.82554	8.78920	11.27970	9.18417	16.04419	19.56120	22.79557
7230	9.61157	9.37687	7.49446	22.60960	31.92877	19.26792	7.51506	7.63478	7.89318	4.74550	8.43640	11.68140	7.72941	9.64924	8.24453	9.39054	8.31122	15.79902
7400	4.17139	6.35690	6.15166	11.11402	15.12305	20.60457	10.87634	10.73181	8.10615	21.67429	19.82318	31.25248	8.51265	7.54782	11.37652	19.13393	18.40088	28.96361
7560	8.20236	4.17054	4.18398	18.08175	20.74725	27.07168	10.44308	14.19403	6.87541	13.99864	17.86032	25.59737	4.80882	4.65965	7.21524	27.04601	31.04764	12.62166
7730	7.83779	6.72276	8.16545	24.54456	20.54670	23.53018	14.36621	9.79358	6.77684	12.15552	13.96454	27.88462	11.49227	7.85411	9.78691	22.18114	18.11442	24.63788
7890	8.67429	7.60852	8.79964	32.51056	25.80137	27.60299	16.33273	10.15671	11.65858	40.25638	16.16504	17.86484	12.65793	12.87296	13.43804	34.08295	18.77156	17.47753
8050	9.53575	7.64258	8.83077	24.17274	19.42464	19.64331	16.98091	12.08311	12.38573	22.42365	16.86987	26.33415	8.78759	10.29594	8.67374	26.59571	17.02323	21.04474
8220	8.36933	8.24719	3.76688	7.65809	18.19724	15.22872	10.38152	6.43413	6.07792	5.50397	6.64736	11.21768	5.21336	4.36670	6.77871	16.01698	11.37652	7.02353	25.15	6.1	0.00	7.48	0.01274	0.01290	0.01669	0.00775	0.00577	0.00633	0.00468	0.01267	0.01688	0.00673	0.00685	0.00887	0.01491	0.01097	0.01198	0.00217	0.00615	0.00864
8380	4.54340	4.15922	3.07317	12.84021	12.78781	14.61896	12.21938	9.75087	7.28256	4.41580	3.02693	6.73980	7.03268	6.26481	6.21438	16.60525	21.93904	13.10624
8550	6.15874	5.17446	10.18456	12.43309	25.45307	14.99294	12.61786	13.93471	12.85105	22.33509	16.93773	39.88174	10.57716	10.03715	9.14920	24.88575	33.73591	33.61964
8710	6.20056	6.15637	7.43293	25.93671	45.18817	17.44938	11.65750	8.14103	8.28892	44.99628	33.88143	21.79155	8.70221	12.36589	10.10677	27.22262	26.50096	17.53186
8880	9.60086	11.85983	10.29595	14.42083	17.81743	19.19691	12.05511	12.02560	11.58487	26.11872	28.57076	26.25830	7.69917	12.17250	10.52675	35.35007	31.30852	38.46664
9040	9.97706	11.86826	11.73093	27.08457	12.25993	14.85368	13.69871	10.79523	8.02104	7.57980	8.22071	8.06428	4.30493	5.75741	7.64586	16.12275	13.39286	15.60712
9210	7.20516	5.10975	3.79329	17.49839	10.04944	13.83212	13.17904	10.45625	9.19128	23.78237	21.92408	28.83199	7.67344	10.13000	8.16562	33.35226	40.10130	22.37411
9370	10.29615	9.97616	7.77583	42.70388	21.60278	17.07349	11.35927	5.46227	10.06059	28.33925	17.50965	32.60043	7.67776	8.06179	3.80739	44.46034	18.87069	14.45022
9540	6.18215	6.76818	8.68492	35.56225	25.92271	26.56049	14.28989	13.67666	11.28441	16.23315	18.95522	18.54770	5.42233	8.59971	12.50021	21.43609	15.92925	9.19150
9700	8.60434	8.29336	7.27947	28.45947	17.15759	13.08776	10.65320	9.89653	6.64749	18.28239	22.39292	10.88396	8.30280	11.88040	10.98437	26.89015	30.20835	23.48664
9870	4.12966	4.42981	6.39812	12.60066	6.86094	30.48547	9.32091	9.35071	5.90321	16.70126	16.06962	20.15182	8.65309	6.91744	5.76205	21.41176	17.02976	18.89300	25.15	6.1	0.00	7.41	0.01274	0.01290	0.01669	0.00776	0.00577	0.00633	0.00468	0.01267	0.01688	0.00673	0.00685	0.00887	0.01491	0.01097	0.01198	0.00217	0.00615	0.00864
10030	4.82340	5.87347	5.01923	14.06621	13.98699	22.86378	13.89570	10.73770	8.34896	16.70314	9.68918	12.61788	10.62383	8.97017	11.45402	16.89816	20.50748	12.55524
10200	9.12389	7.76842	6.19373	31.13033	15.39791	7.54741	11.79462	10.71147	10.15258	20.70444	17.72300	18.34277	11.00133	9.50929	8.84173	33.48125	12.93877	14.11821
10360	5.80700	7.23927	5.98856	12.76889	13.20114	9.90097	8.98280	5.29821	4.10185	18.04603	19.54204	19.16134	5.64396	8.13616	6.19817	24.69501	14.27260	22.35985
10520	4.16550	4.59506	4.71811	28.04544	33.21455	25.30029	12.83333	9.64664	5.42485	17.14693	37.12457	35.29976	9.23059	9.24574	8.27774	29.31399	45.89205	40.92109
10690	7.19988	8.72908	9.02095	32.20806	15.73934	28.50631	12.53733	13.90365	8.81775	17.19364	15.78857	15.23791	12.48596	9.39750	7.92923	11.82374	19.17165	6.94711
10850	12.15442	6.65354	6.21249	13.85342	11.73695	10.24895	11.74898	9.65315	9.04312	13.97468	6.91477	7.39525	8.98101	6.77982	6.76288	17.81069	13.29762	18.09354
11020	5.21626	5.80628	4.64750	13.20337	13.59465	13.85977	12.49266	11.51041	8.35003	12.75062	6.68617	10.26466	10.72970	9.90450	8.50562	16.93485	13.48883	25.66550
11180	5.79480	8.10750	6.38518	27.49136	24.24114	28.92668	13.35029	13.46178	10.45224	30.18047	16.55119	23.57208	8.21768	9.68722	7.64811	25.13082	34.21366	19.63304
11350	4.27022	5.09359	7.53492	7.95511	6.44032	13.35361	11.32567	11.07738	6.53332	7.57743	5.29100	5.60618	10.32280	8.54291	9.09428	9.20783	11.97539	5.84052
11510	6.58892	7.01188	2.88129	24.69989	10.49770	11.32161	10.45459	13.80876	7.98913	19.74566	22.69858	28.51880	9.11990	10.97830	8.63053	18.82961	15.37061	12.77458	25.15	6.1	0.00	7.36	0.01274	0.01290	0.01669	0.00775	0.00577	0.00633	0.00468	0.01267	0.01688	0.00673	0.00685	0.00887	0.01491	0.01097	0.01198	0.00217	0.00615	0.00864
11680	8.47537	8.84509	8.74770	24.41130	25.97206	17.73853	13.63998	7.93036	12.55881	15.98087	28.33515	24.37332	6.64534	8.44937	9.75047	36.92705	51.34125	22.18215
11840	10.60735	6.80965	6.86912	27.18428	41.84517	28.56623	13.45202	10.96744	10.71388	22.51392	24.26656	13.76516	12.10900	12.60298	8.66836	14.05959	12.30830	6.24704
12010	7.73195	6.87427	5.69624	8.21925	8.96934	7.05273	10.80825	11.16675	5.15067	6.94148	8.25662	11.13675	8.02929	7.65619	7.45856	20.33235	9.19768	4.81733
12170	5.91581	5.41002	6.57716	11.52848	11.27878	16.68020	15.04793	11.50365	8.22747	10.63036	11.03300	15.10552	14.13992	9.40088	10.30363	17.17393	15.44204	29.34086
12330	8.62966	8.79136	9.50859	10.50115	19.41023	13.94898	8.89755	7.80147	7.93368	19.32833	12.88208	17.38956	10.70207	10.87342	9.16686	14.22660	17.55172	11.21616
12500	4.75554	9.08788	6.46557	16.45339	23.00169	20.80917	14.24246	12.18278	10.55990	33.82361	25.72252	26.28155	12.31429	15.62973	13.10916	37.10968	26.54209	18.81054
12660	14.34714	10.90302	10.98560	31.02351	23.03776	10.30530	16.60329	14.85177	11.46220	21.82599	19.38088	8.71370	7.16095	7.13444	6.10258	19.70763	21.54911	19.28873
12830	4.89628	4.97361	5.74208	15.25257	16.91626	24.88962	11.86603	10.44413	11.78077	14.61726	13.70602	10.35603	7.80921	7.70507	8.42738	47.26223	15.62295	10.32012
12990	8.00528	7.27894	9.30918	25.52681	18.33205	26.53914	12.42670	10.13375	9.84934	19.84051	23.79937	14.74221	8.40410	7.91526	6.35230	15.64804	23.46182	11.83304
13160	7.89864	6.85136	9.46943	14.33847	5.46310	12.18540	12.12164	10.91989	11.02110	10.99967	12.86418	13.56554	11.56890	12.61038	13.21489	9.61390	9.18759	23.65978	25.15	6.1	0.00	7.53	0.01274	0.01290	0.01669	0.00775	0.00577	0.00633	0.00468	0.01267	0.01688	0.00673	0.00685	0.00887	0.01491	0.01097	0.01198	0.00217	0.00615	0.00864
13320	9.47833	6.09752	6.18380	11.47156	8.41891	9.57972	9.62875	8.72218	7.88004	8.72066	8.70590	13.38602	5.85005	7.40518	6.80227	18.09936	9.36033	9.46769
13490	10.98260	9.26393	5.73899	8.11801	8.48217	7.72960	10.91480	8.53130	8.56948	10.03680	15.04744	12.99948	7.21311	8.06851	9.97792	24.90405	21.36068	12.81676
13650	5.36049	5.74838	6.45244	23.17073	14.60831	10.47562	10.09785	10.06424	6.87517	18.41151	7.67450	8.84219	5.23870	11.08517	8.19684	15.27413	10.03871	17.65021
13820	7.95497	9.12953	3.38618	13.45077	21.26294	13.89546	12.10065	10.39895	6.67950	9.93850	11.39257	19.69244	11.00719	8.02116	8.34846	23.81620	31.66031	15.66445
13980	7.29679	6.95270	7.38231	17.16105	14.92893	17.92323	16.05873	12.65733	10.57683	19.00401	37.64626	18.49722	6.40075	9.92555	7.47241	24.10651	30.31751	19.54178
14140	3.35313	8.87255	8.37982	21.85079	19.49350	14.77621	13.89812	9.73978	6.94311	15.79038	14.63159	12.51789	8.30248	7.03375	5.86862	16.19455	14.90019	26.49158
14310	7.10034	5.43299	4.06443	26.63887	16.49626	10.93793	9.89246	6.88126	8.38660	14.17145	15.35008	6.82159	8.78143	11.08600	9.10911	34.42424	21.58417	21.51969
14470	9.08887	7.35211	9.04367	28.95815	20.10610	21.32575	12.51998	6.88427	9.37682	19.66038	13.14878	18.73800	8.69536	8.65667	9.00438	19.98777	19.58156	21.76528
14630	7.33410	6.00741	5.11380	13.36684	13.07416	15.07935	14.55754	11.67676	10.97380	14.55942	29.24789	15.80950	9.40499	8.05485	8.42865	27.11093	38.99478	47.88613
14800	6.07040	7.88784	5.07301	16.45408	22.72376	16.49882	12.25707	10.37298	9.97150	14.73179	16.27079	16.75702	10.84929	9.56419	7.42427	17.21872	8.49223	16.43732	25.15	6.0	0.00	7.42	0.01274	0.01290	0.01669	0.00776	0.00577	0.00633	0.00468	0.01267	0.01688	0.00673	0.00685	0.00888	0.01491	0.01097	0.01198	0.00217	0.00615	0.00864
14960	5.29135	4.12745	6.29694	20.31862	12.71527	20.03244	10.26507	10.16292	4.79218	12.52525	7.56557	9.75425	3.83446	3.22963	5.45342	15.18125	12.93154	15.18812
15120	4.01792	7.05248	7.95306	5.54525	12.63523	9.45404	14.00442	11.99057	10.67809	20.40417	20.71297	10.88438	8.64944	9.59888	8.21962	23.41494	15.75483	11.78101
15290	6.05763	8.37306	6.14638	15.81888	7.45346	5.66520	13.70434	15.21563	11.02163	13.32656	10.26574	12.54950	8.39766	7.02708	7.11797	18.82893	13.00041	13.86836
15450	5.02757	4.74592	5.20305	29.58994	21.64368	22.36167	13.41669	10.89388	12.98354	14.49718	13.33848	18.68615	9.20101	11.34593	8.05672	11.21013	25.21406	43.43610
15610	10.54698	6.13458	9.17457	33.33707	17.40773	9.43841	13.98855	12.20904	9.22313	14.87540	11.33242	9.63554	10.62535	7.16474	6.56341	25.56268	21.19625	15.10927
15780	8.94983	9.21620	9.73434	7.86009	5.01030	8.26681	10.33679	12.25120	10.92401	22.53896	18.23699	7.07821	7.60142	9.49997	7.51055	21.19374	10.87044	8.18580
15940	5.09933	6.17435	4.32340	15.20864	14.94213	11.15946	9.93124	10.70650	8.74675	9.09091	4.64482	5.82996	6.02636	9.69578	8.62348	10.66495	16.60814	20.87413
16100	5.35913	6.21248	6.33799	22.87474	33.09152	32.38901	14.72904	8.62760	9.20362	19.33664	13.05141	23.08021	11.77824	12.80377	10.61274	15.54336	21.15736	19.00004
16270	10.04316	6.19106	6.89433	25.46675	14.13021	11.52835	6.06171	5.49409	6.75888	8.60217	12.74258	8.76747	8.63546	7.76736	7.98737	13.41047	9.79707	9.77922
16430	6.29944	7.68004	8.29245	11.71468	13.38309	6.26715	14.12316	11.03079	10.09482	14.50911	12.35984	11.20904	8.38559	4.44849	8.03150	22.30232	18.95134	13.85528	25.15	6.1	0.00	7.38	0.01274	0.01290	0.01669	0.00775	0.00577	0.00633	0.00468	0.01267	0.01688	0.00673	0.00685	0.00888	0.01491	0.01097	0.01198	0.00217	0.00615	0.00864
16600	5.27921	4.37394	8.02803	19.26708	13.75432	10.40349	8.90294	7.34257	5.78143	19.98207	20.38981	13.17705	7.79851	6.18841	5.71990	35.64975	8.84757	12.54905
16760	5.95516	5.50433	6.52618	19.89586	17.47423	12.19549	11.56675	10.38878	9.28748	14.64123	14.47987	23.83487	9.04044	9.04883	10.34165	19.96978	27.04312	43.38811
16920	4.69883	8.60086	8.55195	20.08428	20.46490	30.49867	13.05935	9.64662	8.54975	17.21827	18.98047	26.59235	10.63525	10.08354	9.52471	30.18703	27.25749	25.87305
17090	8.02252	7.37957	10.00139	12.55798	18.49912	15.59738	15.09494	7.89345	8.05416	19.44265	11.47537	9.45577	6.26683	10.69321	5.39933	17.63396	8.43711	4.57128
17250	5.12230	4.29407	5.61769	16.49871	13.49156	11.55685	14.09565	11.85607	10.41557	10.45987	13.58100	16.86228	7.07453	9.41177	10.99560	24.61066	16.91619	17.11534
17410	11.19442	9.41642	7.29178	19.05744	24.75234	21.92658	14.44813	11.19018	11.09346	17.08227	14.40412	19.95489	9.90139	9.55671	8.05133	32.69952	29.85852	18.37593
17580	5.00073	7.25406	8.83757	37.15521	39.51517	34.02592	16.56648	13.31748	8.70326	24.23141	20.94421	29.92848	8.45717	9.45046	9.22428	26.97681	23.49001	22.34505
17740	9.88642	5.99708	4.21746	13.45204	19.67471	14.45662	11.19212	9.93479	9.28043	11.11050	25.79500	11.15733	10.68279	5.30906	4.49338	16.50718	14.35444	13.68750
17900	8.11793	4.55562	3.86659	11.22468	12.14387	13.47529	14.52427	9.42948	8.27275	16.20234	13.69907	11.02930	8.01255	4.29268	4.57772	17.14380	7.94350	6.67875
18070	6.48780	5.45190	5.14869	6.92334	7.66463	19.91049	10.47456	8.93610	10.97021	12.47139	22.17159	11.02990	9.83281	7.83608	9.53626	14.69778	21.73996	24.23749	25.09	6.2	0.00	7.36	0.01275	0.01290	0.01669	0.00776	0.00577	0.00633	0.00468	0.01267	0.01688	0.00673	0.00685	0.00888	0.01492	0.01097	0.01198	0.00217	0.00615	0.00864
18230	7.63335	7.66772	10.84021	24.65451	22.13486	14.67767	12.79216	11.90283	9.70925	25.50490	22.24526	20.63698	11.08431	12.84518	10.14093	21.97207	27.81160	23.91576
18390	8.52369	6.12569	4.19924	18.87506	21.07439	43.50029	10.51283	7.97580	4.93910	10.61284	23.67188	13.20905	9.55849	7.24246	6.51888	22.06724	23.91666	25.23716
18560	9.49154	8.34751	11.11778	13.07184	11.04265	11.28755	12.52317	11.28456	9.96123	8.32853	4.45738	11.19684	8.04898	6.01051	3.86303	19.67462	20.35123	17.29287
18720	4.68204	5.88190	5.62584	5.00727	9.68332	11.51901	12.00712	8.11612	7.56973	5.69167	5.65523	9.71985	7.80817	6.51181	5.36925	6.88805	8.06193	7.75091
18880	5.12576	4.48874	5.85470	4.84838	16.40254	8.90043	12.17782	14.32539	5.72018	12.29964	19.67833	14.03289	6.97301	6.99215	5.00728	18.05629	21.96655	14.66148
19050	6.60678	4.27127	3.18426	18.86154	31.48422	24.61363	8.88010	10.98306	10.23781	24.65837	21.07722	17.62417	7.90801	9.08472	9.08814	25.49432	19.73207	20.20139
19210	9.71056	7.33888	4.75274	27.05674	14.99178	16.49599	14.12324	14.87657	11.54223	14.78338	22.50591	36.53356	14.09109	13.46740	12.33413	37.86585	19.90426	30.99162
19370	8.12569	7.33367	12.46507	19.91636	48.57996	24.39233	10.93839	11.28490	6.08863	12.27825	19.35137	15.45715	7.39869	6.87193	7.34469	35.97571	39.38858	29.91606
19540	9.65858	7.68697	8.86433	13.03300	17.36983	10.68376	10.62070	10.97695	7.12222	15.80519	10.86697	8.36771	5.62057	7.07790	5.99790	8.16927	14.17729	6.37144
19700	3.83721	3.54701	4.95167	5.85996	7.11080	8.57742	9.58999	10.58628	10.05229	8.64591	6.00096	6.21772	7.80276	4.63132	3.97468	15.33008	9.88479	10.78244	25.15	6.2	0.00	7.36	0.01275	0.01290	0.01669	0.00776	0.00577	0.00634	0.00468	0.01267	0.01688	0.00673	0.00685	0.00888	0.01492	0.01097	0.01198	0.00217	0.00615	0.00865
19860	5.85092	5.14009	5.35302	13.75095	15.75603	21.07898	14.89720	12.79960	10.30376	10.97028	17.83624	15.99028	9.32534	7.88805	4.71938	17.91249	26.98244	25.25162
20030	3.54332	3.96053	5.13773	17.38873	17.31236	23.87146	16.05024	10.56349	9.25118	12.51698	15.54064	14.78303	7.11114	6.01702	7.95825	16.43305	30.64695	13.84661
20190	7.76317	5.57129	5.78490	16.84964	16.55798	16.10343	12.46613	11.95583	9.04829	21.98338	6.37018	6.74967	8.97575	9.00759	3.12178	10.62824	9.04519	10.52526
20360	7.31919	3.38203	4.44646	8.07879	7.95854	9.18187	12.66090	9.65158	5.90124	6.50607	9.40947	7.11121	4.52362	7.54132	7.71426	11.35114	6.90445	4.73923
20520	4.62180	3.38597	2.77782	10.35199	10.23657	11.24188	10.43680	6.06172	6.08609	11.79585	10.83948	11.54852	7.94133	6.14664	5.23267	12.72952	9.24882	10.68382
20680	5.66200	5.91799	4.30682	15.65760	10.18706	5.51807	8.85730	6.06011	4.63687	6.85865	6.04224	4.72550	4.75190	6.45128	3.58047	14.80309	11.67149	15.30075
20850	9.79754	8.11309	7.66807	9.20502	9.70406	8.66164	14.24883	13.14174	12.84145	20.06412	10.54512	7.53865	8.45555	8.67014	8.41875	9.36223	15.29825	15.22415
21010	3.18188	5.04715	4.81235	7.47673	18.53593	7.81125	9.80014	8.92023	10.88217	21.92703	23.70020	30.40961	9.81737	11.61888	9.28504	31.22184	16.67890	9.03632
21180	7.52400	7.63624	5.98237	19.20918	21.88185	12.49762	12.92456	12.12497	6.32112	15.09919	13.96969	6.09426	9.15410	6.60256	5.10842	11.90408	11.63464	16.10490
21340	4.18097	5.55187	5.06980	11.62911	17.55360	9.70096	12.31343	12.39665	10.92989	19.22583	24.69281	12.69159	10.88283	6.08236	4.22202	17.47049	19.73186	18.11343	25.15	6.0	0.00	7.35	0.01275	0.01290	0.01669	0.00776	0.00577	0.00634	0.00468	0.01267	0.01688	0.00673	0.00685	0.00888	0.01492	0.01097	0.01198	0.00217	0.00615	0.00865
21510	6.44667	6.20465	8.38069	13.91776	12.61162	14.86854	11.60981	9.04421	9.44446	26.85626	16.22149	20.42065	4.99830	2.97369	5.30384	14.26765	14.27452	10.51521
21670	7.15053	6.91353	6.74378	7.21233	8.25204	8.54946	11.68454	7.04281	6.27565	22.63219	14.88055	16.42478	6.57766	5.58496	5.32877	12.27711	11.00223	4.40615
21840	4.37053	5.74927	5.23643	5.06637	8.94937	10.91828	8.32423	8.41826	9.88974	11.46200	7.37595	18.30075	10.25789	10.92698	7.54163	31.57493	14.10052	17.33748
22000	7.07210	9.69073	7.67279	20.91081	22.92958	25.09334	13.89312	9.04027	7.86132	13.19900	14.59531	25.41275	9.86932	9.29871	8.35404	35.39132	11.62540	15.83247
22170	7.53271	4.79802	4.94874	8.73479	8.92560	8.12416	9.20204	6.40335	6.96939	5.76311	8.79356	11.34294	5.63202	5.74685	6.08688	12.79297	7.44690	7.60982
22330	5.69637	5.91073	10.18952	13.60490	13.36319	14.87207	14.41168	11.19808	6.35940	15.77953	10.54005	13.79078	8.52412	10.64124	9.90277	10.39627	7.54959	3.75563
22500	9.24737	8.92817	8.50412	5.55609	3.34413	5.26387	12.61000	12.91365	6.86591	9.72951	11.55765	7.62136	11.42595	7.89055	10.53722	24.78937	21.39839	26.29533
22660	9.72903	11.62638	6.76442	9.08659	22.99288	21.65545	17.06950	13.80549	12.75505	14.72754	11.69826	14.26816	8.32000	10.07914	7.46415	19.56200	12.75164	12.11404
22820	8.14165	6.25998	2.98609	14.62699	16.04925	17.72144	11.01614	8.53541	9.84758	16.88988	8.13471	9.88866	6.12353	3.68395	9.33048	18.54891	14.07356	8.41881
22990	9.15761	7.52889	7.97206	20.52556	12.91459	8.80146	15.48532	9.80540	7.68571	12.60402	12.08121	10.23089	6.11639	6.32787	3.50592	17.75364	15.10246	15.56797	25.15	6.0	0.00	7.76	0.01275	0.01290	0.01669	0.00776	0.00578	0.00634	0.00468	0.01267	0.01688	0.00673	0.00685	0.00888	0.01492	0.01097	0.01199	0.00217	0.00615	0.00865
23150	7.30713	5.75413	7.47161	30.64717	19.21328	14.94265	12.44860	8.72947	8.47862	18.20647	20.44276	24.32511	7.45311	9.09947	9.24533	27.21327	17.56822	17.05081
23320	10.97156	9.13894	4.82754	27.72786	14.27727	9.82164	11.87430	12.54848	10.56345	15.39765	15.30419	14.24979	10.90980	11.35494	7.62263	14.79440	14.01612	18.63176
23480	6.79503	7.23464	4.84499	20.12228	19.75998	25.41974	14.28243	11.21878	13.04979	14.45178	12.13992	8.63138	9.89604	10.39555	9.31128	18.74804	17.01220	22.40628
23650	7.29442	7.79000	9.61412	9.15066	9.35045	7.60489	11.58935	13.74502	9.95815	10.00523	18.36395	16.57931	8.02734	7.14934	10.44832	15.44504	19.86760	28.76043
23810	9.35511	7.47341	8.91966	19.86153	20.24680	16.95588	13.05503	10.01038	8.09140	7.81356	17.68853	11.60077	5.04299	6.90183	4.65504	17.34702	8.75547	4.73306
23970	3.47652	6.17018	5.38617	7.44391	6.97626	9.06013	9.32443	10.05386	5.14226	9.86609	10.71772	5.18854	4.09552	9.52707	6.31314	9.99672	16.80553	12.02127
24140	3.71081	6.75648	6.94226	12.22232	12.19786	3.79443	12.71082	8.80680	8.83902	4.98168	7.60610	6.22266	7.89696	7.23205	5.42532	11.44424	14.92059	12.32559
24300	3.21927	2.84587	5.53496	5.31943	11.66308	13.37556	9.48658	7.26919	5.30947	9.25196	10.09931	11.92173	6.73895	6.52608	8.70978	11.61691	8.42811	7.05029
24470	10.50946	8.41932	8.29048	9.04337	7.45412	23.42750	13.68432	8.97099	9.19446	12.71377	9.95794	21.85067	8.02521	6.39573	6.21981	24.24218	29.04529	21.54426
24630	4.93186	5.77920	9.62176	15.20758	28.85289	23.23019	14.30724	12.60590	10.70174	24.85014	21.20592	16.05209	10.74872	9.08210	11.08365	13.98693	15.94779	13.65962	25.15	6.1	0.00	7.38	0.01275	0.01290	0.01669	0.00776	0.00578	0.00634	0.00468	0.01267	0.01688	0.00673	0.00685	0.00887	0.01492	0.01097	0.01199	0.00217	0.00615	0.00865
24800	4.97600	5.64236	5.35719	7.16530	17.90068	16.47464	12.54907	13.29237	7.28754	23.59534	23.74663	26.36872	7.96134	6.95013	6.56151	37.81075	25.17117	34.81256
24960	8.80686	6.41577	4.01773	28.39028	22.02957	28.54130	8.62481	7.80871	9.92906	27.07046	20.69094	24.74577	7.93687	8.88087	11.29363	11.42100	14.63796	20.87835
25130	11.03555	7.36513	9.07285	7.25602	7.78115	5.48380	12.75161	11.01995	6.93167	6.35030	13.09949	17.78759	7.78219	7.02655	5.34991	18.20055	16.88041	11.75636
25290	5.77441	9.17101	8.35947	10.95944	11.70061	15.93408	11.04855	10.48923	8.76896	25.96275	20.64718	14.28151	11.47233	10.69989	9.67771	16.39527	11.90629	20.44750
25450	7.55078	6.35875	7.27803	16.06489	19.38577	13.66423	10.77824	10.84540	9.73690	8.07774	26.99802	23.10582	9.99419	9.83407	7.73084	17.19834	14.46239	20.07591
25620	6.38042	3.76401	5.81169	15.69905	20.12018	11.62516	11.11736	8.45506	5.74171	16.35445	22.01172	13.56447	7.32654	9.00239	14.58958	23.28157	11.25412	22.07951
25780	9.88522	11.05343	8.93132	23.65863	14.11989	16.58593	15.11741	9.97669	7.29277	11.61684	12.14147	16.59481	6.63889	7.12073	9.13811	22.22211	10.39915	8.05598
25950	3.84234	4.00913	9.09626	20.10700	17.34317	6.66950	15.74573	11.33604	9.28894	10.83122	10.97843	5.59934	6.85095	8.00606	5.60314	13.22792	13.10267	5.41772
26110	7.88327	7.62685	6.86325	7.71135	4.59140	6.26010	11.13485	5.33233	10.54153	5.20795	11.79116	16.47309	7.30583	8.35654	6.74350	31.31182	18.38740	16.78578
26280	6.30915	6.03330	4.79667	9.56603	23.08623	25.49818	11.02131	14.78505	11.58239	18.23743	22.41097	26.92278	11.50223	9.70547	11.85578	28.51618	28.40260	25.16545	25.15	6.1	0.00	7.48	0.01275	0.01290	0.01669	0.00776	0.00578	0.00634	0.00468	0.01267	0.01688	0.00673	0.00685	0.00888	0.01492	0.01097	0.01199	0.00217	0.00615	0.00865
26440	6.89475	5.44146	6.79628	17.56452	17.09279	24.96727	15.83040	12.18599	9.87255	25.46412	16.21634	11.98605	7.28339	12.38568	9.53428	21.17121	22.16913	21.43767
26610	6.18932	8.42693	8.25822	13.52626	9.64084	6.71219	10.95870	15.77550	6.06209	10.14602	11.92815	13.06248	5.84013	4.14751	6.11579	14.36430	11.31834	16.63233
26770	6.28266	7.71459	6.91886	10.28074	9.65984	13.81396	12.01502	7.08242	6.37978	6.28649	8.51247	5.95981	9.75247	7.49935	8.17872	15.39034	14.16623	17.47645
26940	8.22738	9.62825	6.73007	11.70825	13.65792	20.37351	12.12705	4.65373	9.70871	12.09868	10.57598	8.25507	4.95630	5.09859	4.17018	29.90652	19.63922	7.71049
27100	3.60692	2.71730	3.71430	11.55821	11.28421	12.57738	9.55095	8.61928	7.27712	16.14877	12.34109	16.64084	6.34367	6.48976	8.71301	13.36487	21.94480	31.29372
27270	2.28526	4.95064	4.69534	21.70858	9.44092	20.79822	10.35175	8.05870	8.31728	17.45452	15.76223	18.72123	9.22563	8.17554	7.70034	27.62383	18.82834	37.39011
27430	8.08786	5.00450	6.76065	30.02280	23.54411	12.17796	12.19885	13.84622	12.05955	19.09630	21.05686	15.55279	7.70409	10.53143	8.69779	19.89371	13.46815	8.68862
27590	8.15370	4.03581	6.01373	9.88687	9.42075	16.92311	6.94930	5.95391	8.75261	16.90055	14.18636	11.20937	7.45569	6.91214	9.79399	21.96055	13.81574	11.10883
27760	7.49199	6.91830	6.43464	17.58912	10.94823	10.63370	12.48595	11.31261	6.53445	13.55334	5.75949	2.36316	4.52285	6.66562	5.13683	14.45406	8.22196	12.26221
27920	2.73027	5.28233	5.29580	11.30846	9.50880	14.57190	9.63503	10.11988	3.39248	16.45749	13.61592	13.48830	6.04289	7.00556	5.84473	8.03559	10.94032	9.23020	25.15	6.1	0.00	7.37	0.01275	0.01290	0.01669	0.00776	0.00578	0.00634	0.00468	0.01267	0.01688	0.00673	0.00685	0.00887	0.01492	0.01097	0.01199	0.00217	0.00615	0.00865
28080	10.60879	8.66457	5.16796	11.47443	20.39320	25.79824	9.66883	6.70091	8.70017	36.30361	20.70931	26.66642	12.77670	10.92626	10.72131	23.44225	33.17517	26.70508
28250	6.53026	5.84224	9.46326	12.31807	16.14559	13.79934	16.51573	14.84839	10.62535	12.35399	11.33846	12.45828	11.60262	10.86897	9.35287	13.62555	17.14239	9.34376
28410	7.74067	8.21545	8.01715	11.48553	13.40409	11.93195	13.05178	6.53959	9.15459	16.35862	10.54009	14.70963	8.04261	7.77222	9.53598	17.23120	23.75187	14.05282
28580	8.93416	8.70821	8.68856	10.99398	18.48281	11.84203	12.00469	10.03089	8.38923	13.36774	17.55414	24.52071	7.04684	10.97460	8.66623	29.78420	38.98775	20.20297
28740	9.56792	11.20964	8.37045	26.39518	19.86017	15.80756	17.97926	14.23784	9.27098	17.85711	12.18009	12.85859	8.45248	5.80868	5.42723	18.67393	19.35185	14.01544
28910	7.38647	4.95075	5.14952	7.23472	6.80130	9.10726	8.10628	6.57735	5.33964	4.86423	7.71578	9.39846	5.32051	5.15929	5.17884	12.44805	8.41778	10.18323
29070	6.40650	3.93297	4.88042	9.83079	20.71950	17.61940	11.21511	10.13174	5.82448	13.41150	16.46668	10.42111	4.14230	4.63476	5.65920	28.34257	29.99158	31.04180
29230	8.62665	7.37233	7.04130	15.85541	12.85270	10.66499	13.35322	10.72166	8.22115	11.17518	17.17544	19.58394	7.60668	5.33789	7.60688	17.38118	9.62773	15.61940
29400	4.52312	4.38124	4.66044	22.07870	20.63576	9.72253	9.44571	6.57549	9.60955	13.96775	6.60335	11.53774	8.72471	11.59893	11.06856	16.66535	15.61173	6.94886
29560	6.19943	6.09749	4.95562	12.38383	12.27311	5.22439	13.73655	6.85325	6.39948	3.66349	6.20891	10.92607	7.35256	5.76356	6.24874	11.44888	11.61583	10.99792	25.15	6.3	0.00	7.35	0.01274	0.01290	0.01669	0.00776	0.00578	0.00634	0.00468	0.01267	0.01688	0.00673	0.00685	0.00888	0.01492	0.01097	0.01199	0.00217	0.00615	0.00865
29720	4.93848	3.62608	5.30276	5.78706	8.09731	9.55973	7.27234	9.20833	7.79151	8.82917	10.33396	7.34472	6.84129	7.42151	5.62730	14.95448	11.29397	10.67667
29890	6.41486	5.51513	5.29866	13.85215	13.81345	16.10247	10.47105	11.10069	8.15229	10.68153	21.35618	24.66807	10.00946	7.04244	9.22555	19.36804	15.90434	15.74109
30050	6.35578	5.33713	5.96563	14.54017	9.36013	8.88332	9.33906	10.67513	5.93384	16.64144	8.53315	13.16617	8.02458	8.27256	7.77757	13.88232	8.78005	10.19003
30220	6.93008	9.41990	7.71077	11.57108	6.28153	11.42298	9.48582	10.02180	8.64119	5.96892	9.26277	10.42960	4.42454	3.30225	4.96593	15.17644	10.62268	6.25570
30380	3.78622	3.03792	5.03038	14.88723	18.29783	14.80084	12.21066	9.66727	6.19480	16.18334	21.00075	18.39708	3.79890	5.62390	5.81878	10.95030	10.12423	11.59092
30540	5.59282	7.49006	8.10092	12.58467	21.75318	22.88982	14.42942	12.37245	11.35463	22.21725	17.38215	21.77093	10.26979	10.89822	10.02811	17.80844	7.37610	9.85109
30710	6.87622	9.52177	6.25927	6.09800	11.05691	12.14072	10.42262	8.57124	6.23440	8.25087	10.77883	9.98020	6.80816	4.92514	5.46674	18.12387	27.00346	22.60159
30870	9.70931	8.74845	6.69111	23.78795	19.06760	9.57441	8.78374	8.53673	5.25328	7.84551	8.21607	8.43444	9.21876	9.49264	10.52249	26.69109	18.98381	21.88488
31040	9.13992	8.64947	9.25017	25.24934	15.77240	13.12043	15.03471	12.52196	11.87064	21.38007	12.61572	12.00447	7.22994	9.45483	7.47379	21.95517	15.91771	8.63748
31200	8.00325	8.43814	7.71488	18.50837	16.78262	8.79927	8.61635	9.73082	5.33273	17.25996	13.74268	14.86158	8.92770	10.00256	7.47245	10.23587	7.92922	11.39856	25.21	6.1	0.00	7.35	0.01274	0.01290	0.01669	0.00776	0.00578	0.00634	0.00468	0.01267	0.01688	0.00673	0.00685	0.00887	0.01492	0.01097	0.01199	0.00217	0.00615	0.00865
31370	6.09529	7.22293	4.73740	20.28074	8.86173	9.11753	10.59152	11.53977	6.89373	11.51975	15.19300	13.82257	8.23354	7.13765	8.95113	13.48501	14.16194	10.80328
31530	6.87988	6.34120	5.29678	30.90666	20.97006	11.70573	12.12401	11.79105	9.63887	15.91168	10.39502	16.16747	8.43118	6.60788	5.87500	12.23622	11.76370	19.56649
31690	4.51160	8.34471	5.39281	16.20231	19.50862	15.56290	12.86588	11.44025	9.70070	11.99204	17.00064	17.13994	5.97792	8.09546	9.09511	23.13600	25.33948	27.11079
31860	8.90481	8.72521	10.15916	14.30186	13.56453	23.05598	13.74144	10.82423	12.45038	19.33108	20.55477	21.83754	9.12265	9.61472	6.78589	11.17146	14.23523	6.98904
32030	5.78004	6.65909	5.89590	13.66695	4.97747	7.35378	8.40096	10.25700	6.74874	11.49913	10.42391	11.29463	11.26850	6.24328	6.09988	17.01440	12.91965	12.31305
32190	9.69251	6.98421	4.21511	16.60053	11.54268	10.05229	8.30024	7.36926	5.96525	18.78712	20.56680	12.05217	6.51958	5.53325	3.37427	16.36902	12.44320	10.30004
32350	5.16019	8.83396	7.63151	17.49568	14.74918	14.07073	11.73872	9.95528	11.05251	19.06618	12.61199	11.26799	4.94401	4.51706	11.33033	15.97918	40.52880	29.09542
32520	6.35538	6.34260	7.23721	38.19856	35.05680	23.01613	14.24529	13.47067	15.30340	11.27367	43.99046	16.46320	14.54333	9.78712	11.06625	26.53977	23.37768	16.70482
32680	7.13185	6.88608	5.49668	19.14704	12.41949	16.48410	9.88028	7.69638	9.62189	21.90906	15.33654	9.74793	6.56567	4.80805	5.30961	13.21125	12.99214	17.09069
32850	6.85287	7.94221	6.72977	22.87388	14.98467	20.00415	11.68404	10.34874	11.11349	18.44286	12.83198	13.96344	10.06855	5.26435	6.05488	14.85778	8.80037	7.27967	25.15	6.1	0.00	7.35	0.01274	0.01290	0.01669	0.00776	0.00578	0.00634	0.00468	0.01267	0.01688	0.00673	0.00685	0.00888	0.01492	0.01097	0.01199	0.00217	0.00615	0.00865
33010	7.61580	7.90708	11.66741	17.36232	23.13361	13.22906	14.85940	11.55613	10.81522	15.68976	22.37262	27.10929	8.90529	7.37040	9.97699	19.36194	12.47103	16.72675
33170	7.15533	4.46639	3.98938	7.65344	11.35907	15.58398	10.07937	7.20800	7.83313	9.81909	11.96064	16.32269	3.53452	2.79707	2.84234	13.50054	6.09188	5.83220
33340	6.13649	5.01958	4.43647	8.73378	9.64157	9.44742	11.53195	7.89345	7.94460	9.67986	9.55203	5.20360	5.11417	5.07748	6.44898	12.57331	8.15297	12.32496
33500	2.96230	5.87239	5.10308	12.09736	9.60545	8.09877	7.74206	7.36276	5.94106	11.21753	15.62340	14.37498	7.72486	8.42761	7.84772	12.55801	14.34183	9.87062
33660	6.86764	6.64848	7.82410	17.83408	13.00530	11.13197	13.93743	12.74312	8.79314	12.36027	18.27708	10.83587	10.18240	11.06570	12.16820	17.75669	11.32583	11.05002
33830	8.61316	9.64427	8.44263	11.61488	17.48286	5.35098	16.81263	11.30070	10.07431	9.94583	5.98961	6.15074	4.63115	3.71990	5.01103	13.02970	20.65610	15.03437
33990	7.07191	5.83714	5.03014	14.14621	19.18968	9.74337	9.66732	9.70723	9.56759	24.99768	26.22512	12.92503	9.62639	10.37776	8.76989	8.33064	11.48428	7.07436
34150	9.76442	6.01281	8.33141	23.07629	17.54150	8.14956	14.27871	12.36322	6.80444	5.08479	16.42258	11.64354	8.54028	7.28536	5.47328	20.13510	18.94050	10.21440
34320	5.75121	4.63960	5.23798	8.55060	3.85507	7.91996	14.66474	9.23360	8.61128	7.14041	19.74537	6.76824	5.94634	5.33903	10.23796	11.21863	9.81065	12.99226
34480	7.96777	8.31641	6.07976	9.50938	12.58856	13.89879	13.15226	9.36978	9.56631	9.34306	7.37181	10.87195	5.11489	4.54515	4.59244	9.60874	15.84498	12.37488	25.15	6.2	0.00	7.35	0.01274	0.01290	0.01669	0.00776	0.00578	0.00634	0.00468	0.01267	0.01688	0.00674	0.00685	0.00888	0.01492	0.01097	0.01198	0.00217	0.00615	0.00865
34650	5.58684	4.78091	5.56359	20.01965	22.07400	23.32155	12.57003	7.46030	5.10477	13.19058	13.23840	8.33834	7.55306	6.29167	3.28070	17.05063	14.63212	9.53651
34810	5.88798	6.32240	6.85843	5.94009	5.10807	12.05628	11.08940	8.57867	8.41536	11.45255	12.22836	8.72833	5.56457	5.15473	4.78348	18.18540	17.80302	15.99136
34970	8.23037	9.26707	5.97765	17.49563	11.41448	17.11945	11.12988	7.45887	10.01736	10.98610	6.81535	13.39786	8.86225	10.80124	11.15411	22.14486	17.78526	14.09296
35140	5.77057	5.90839	7.73408	10.73120	7.66360	15.98511	16.66231	13.30187	8.76228	12.92235	16.61047	17.81316	8.48549	5.14139	8.12929	11.40906	6.62504	15.58146
35300	4.81796	5.48512	5.75795	11.91336	7.78698	7.29592	10.87491	8.27812	10.42386	8.11829	6.42512	7.28061	9.94794	8.83341	7.81679	9.23230	4.48162	3.21540
35470	8.73040	6.81053	6.52487	4.52600	7.14520	4.35246	8.58369	5.13299	5.21674	15.56786	9.56851	9.24212	2.42456	6.74527	6.92477	15.06380	24.82368	20.86864
35630	4.90382	5.65930	4.89970	21.53997	36.35045	8.41121	11.16102	9.81413	8.99375	7.85611	8.26460	19.33464	8.40540	7.77829	9.58519	15.47329	14.74281	18.83551
35800	7.49254	6.40028	6.25246	23.14242	31.10401	25.96544	10.12422	9.63529	5.07296	18.27608	18.01096	13.50928	7.50937	4.78447	10.79774	25.60801	32.31873	26.36069
35960	6.10785	6.69787	9.48575	21.32376	18.13110	26.24051	9.33812	9.13591	6.18880	10.07808	11.58955	19.83976	9.67328	7.15224	8.11459	15.31546	21.37857	20.45619
36130	9.38694	7.69929	8.20794	19.98222	22.77106	16.23532	13.44878	9.82115	7.15185	16.59202	21.06195	8.85066	6.01691	7.94316	10.34406	20.25489	21.36105	17.24242	25.15	6.2	0.00	7.40	0.01274	0.01290	0.01669	0.00776	0.00578	0.00634	0.00468	0.01267	0.01688	0.00674	0.00686	0.00888	0.01492	0.01097	0.01198	0.00217	0.00616	0.00865
36290	6.46301	6.00739	7.13984	19.64888	11.70860	9.02103	12.47592	9.38265	8.78856	8.38545	5.69145	4.18613	7.09713	8.14410	5.37679	11.23517	10.56677	10.45511
36450	5.43791	8.19551	9.63237	7.44999	8.58362	11.34464	12.10499	13.63340	11.46901	9.30541	6.02405	8.00342	7.55724	6.93733	5.75353	14.11942	15.33327	13.05027
36620	5.03511	3.58952	2.45798	14.79642	9.37864	6.49284	9.65733	5.26673	3.16600	7.92846	7.62174	8.76846	6.40385	5.78995	7.38728	10.54414	12.39523	12.06409
36780	6.43664	5.63535	7.48281	12.18614	17.02883	14.14456	13.42227	8.76821	7.17774	16.45822	12.14283	8.23188	8.58973	8.55373	6.47778	18.21697	14.81780	20.23667
36940	6.15740	6.70738	6.64624	10.70721	6.57649	5.69099	8.15727	5.20846	4.84182	9.84671	11.29475	6.29017	6.23409	4.59260	5.91888	17.88723	15.35278	18.07943
37110	7.07919	7.29079	4.72128	8.59900	18.92823	12.71021	14.13065	9.68890	10.11811	6.21363	7.25609	10.05827	12.09591	8.59536	5.95070	8.81366	9.44273	9.00081
37270	6.74508	4.94590	5.32136	19.55950	12.02608	13.20175	8.71945	8.66002	6.06013	8.34030	5.80476	16.24699	10.93877	6.71496	5.83166	13.86894	15.84958	17.38704
37430	7.80607	7.33437	9.33933	14.20599	14.27728	15.56316	13.88651	11.39019	9.27160	11.50296	11.73497	19.47287	5.64558	7.05170	8.70694	22.16260	22.46262	22.12330
37600	7.93538	5.06337	6.99965	19.49986	10.11308	10.28443	12.27583	8.39546	7.86969	9.96223	9.38185	10.23080	8.38632	7.66219	7.18270	14.16990	9.93862	10.05753
37760	6.02855	4.71817	3.83959	13.22599	8.19944	10.88886	8.02258	4.00054	6.26941	4.16018	1.91129	6.47516	4.39972	5.15592	3.18426	12.43311	14.24231	25.31702	25.21	6.2	0.00	7.30	0.01274	0.01290	0.01669	0.00776	0.00578	0.00633	0.00468	0.01267	0.01688	0.00674	0.00685	0.00888	0.01492	0.01097	0.01199	0.00217	0.00616	0.00865
37920	8.04748	6.55267	5.37157	8.08410	17.00476	24.00184	12.36560	9.27012	7.39029	5.85983	8.44905	7.24005	3.61561	3.79441	2.81263	11.04689	6.90854	8.18499
38090	2.43534	4.10313	6.68505	10.13329	20.91625	13.90605	11.49319	12.25791	9.27664	15.52330	22.33958	31.79053	7.21488	9.21588	8.52686	25.22040	33.28263	27.47074
38250	9.80560	9.00636	6.85748	16.76213	13.93300	22.67324	11.71974	12.32890	8.87202	24.34909	13.61481	24.73930	7.59410	5.09237	7.86043	18.19193	19.99242	11.47158
38420	7.08194	4.27353	3.60237	7.57261	11.27941	10.12800	8.70859	8.12470	4.93171	10.09854	8.83498	13.39181	6.10881	6.29907	7.57722	24.27542	10.34125	9.73577
38580	8.11516	6.04953	9.00159	14.05058	15.34592	19.92209	9.83947	10.14296	7.37835	10.51467	16.41836	22.30293	7.12598	6.98883	8.12698	33.92463	25.62096	16.79470
38750	6.11650	8.07836	7.50385	20.79279	20.45013	21.30021	12.14315	8.87344	8.95851	11.86121	17.13331	25.30888	7.90993	7.63112	6.41199	23.93341	16.47533	15.87650
38910	5.80562	6.34488	7.62685	24.58225	29.78005	20.76668	13.63510	12.98815	12.58042	10.11154	17.77585	19.21325	8.94888	8.28508	8.91080	33.39524	29.37617	25.90404
39080	8.48091	9.64812	6.89913	20.23657	18.85489	13.00563	11.95737	12.26217	9.54463	8.78672	11.19588	13.43890	4.66046	7.34471	9.52981	17.91163	11.36798	7.81478
39240	6.38083	7.59727	5.27434	15.79860	11.49397	10.93800	14.42979	7.42094	6.88868	11.34663	16.09624	17.76218	8.77267	6.00679	6.40850	21.42095	14.48737	9.84635
39410	3.54404	5.68068	7.48067	13.70086	14.25974	11.23989	8.42563	7.28747	7.22488	21.20516	19.23645	14.08632	8.14321	9.78029	10.70956	20.32628	6.70242	11.70277	25.21	6.1	0.00	7.32	0.01275	0.01290	0.01669	0.00776	0.00578	0.00634	0.00468	0.01267	0.01688	0.00674	0.00685	0.00887	0.01492	0.01097	0.01198	0.00217	0.00616	0.00865
39570	8.77155	5.53159	8.21474	8.87034	14.17866	14.77711	11.48127	15.00057	9.50675	16.34271	10.25101	9.52412	10.51988	8.03473	6.97931	15.09949	25.12659	32.14623
39730	9.95995	10.76469	7.06831	26.35872	15.05100	27.74172	13.78456	13.36464	9.44394	15.30153	10.39671	14.85240	6.39023	4.83125	6.19238	10.26208	9.22494	7.11485
39900	4.87183	4.07308	4.75939	11.60229	11.00698	10.54486	10.65317	7.70875	5.99426	9.47424	10.91349	9.96662	9.06070	6.29814	5.75857	19.11388	10.99514	9.41329
40060	6.35483	7.59686	2.46963	8.11861	10.45943	17.99644	8.80133	6.76291	5.38196	18.48097	18.14298	20.48373	7.97468	8.82272	6.34936	21.88576	27.69219	12.61044
40230	8.65726	5.08319	4.11074	13.90032	24.20455	14.67195	9.51302	5.93916	5.90473	21.56472	10.63769	9.23376	10.79082	7.53294	6.11526	25.78014	19.54120	14.82609
40390	4.10240	4.89598	3.65223	10.61258	14.24614	11.72573	13.34717	7.39256	8.42451	7.11313	7.09353	18.23554	5.22875	7.00270	8.76697	15.56135	11.78074	15.40577
40550	3.51052	5.23160	8.84149	8.35699	6.86001	4.74852	12.58692	9.90346	8.85873	4.73702	8.75706	9.26016	6.81778	3.66322	3.58538	10.87534	18.54787	9.64561
40720	4.91389	3.30700	5.47249	19.22811	15.19481	20.80812	10.19391	12.33176	8.82261	18.72991	22.67201	12.33180	7.75654	7.93915	7.56939	10.11963	25.33207	15.83081
40880	7.81105	7.10353	5.88986	13.81984	10.67771	19.50577	10.71336	10.19547	7.79757	6.79519	10.48916	15.66277	7.55323	5.91925	5.46030	24.98241	12.24031	11.62041
41050	6.14429	3.31514	3.80650	10.36230	8.58942	13.69154	13.60722	10.90755	8.63021	18.70160	24.21427	10.66862	4.97014	6.10264	8.03190	23.27244	12.52294	17.82277	25.15	6.1	0.00	7.35	0.01274	0.01290	0.01669	0.00776	0.00578	0.00634	0.00468	0.01267	0.01688	0.00674	0.00685	0.00888	0.01491	0.01097	0.01198	0.00217	0.00615	0.00865
41210	7.57456	4.84336	3.73255	14.66419	15.24170	13.25032	8.82074	5.22330	4.38195	7.39709	11.84704	14.13853	7.24327	6.84549	6.22096	14.01155	21.54319	16.65423
41370	9.45296	10.08322	6.37761	19.79598	11.20948	22.36811	10.87484	11.12795	9.76082	13.36204	16.60709	16.90094	9.44609	9.38741	10.02550	17.28112	10.05562	8.50133
41540	9.12287	7.02379	6.71723	4.68644	4.68470	11.65512	11.09562	8.40854	7.92214	9.07516	5.84263	9.20096	4.52514	3.57041	4.26903	17.15995	9.32545	11.73173
41700	7.88889	10.30387	7.83392	10.50335	14.64313	9.63640	13.62250	10.47246	8.54329	7.09880	6.74986	4.54538	6.34374	7.90437	8.98210	9.53635	14.64907	15.35885
41870	6.96842	6.78441	6.92189	6.56041	11.40979	10.80407	13.77170	9.46356	7.60987	7.23771	11.41657	14.79414	7.58285	6.40495	7.81137	22.28722	12.89724	7.97744
42030	6.84818	7.00571	7.58069	8.01529	9.35757	11.99191	11.91423	7.46689	8.37780	7.40349	7.11387	6.55134	6.95429	7.03225	7.53379	9.51719	10.42037	7.99872
42190	3.20892	3.63925	5.30526	10.64529	9.11138	10.24386	9.30830	7.02028	7.32985	12.84955	8.37858	6.63583	5.13450	3.11866	4.73658	17.93904	17.88962	18.10097
42360	6.08533	4.48582	7.40017	17.82762	10.21581	27.46979	9.84534	8.69990	7.62923	27.18655	32.96956	19.16635	5.66607	5.30773	4.00624	37.31859	17.20952	18.08680
42520	8.67317	8.08167	5.48449	14.85547	18.37893	20.78650	10.75556	9.93970	9.16441	11.54110	13.93848	20.20804	5.54598	4.78249	6.61800	19.32373	15.80756	27.69021
42690	10.15168	7.33232	7.46460	32.45552	30.32868	17.07404	10.40780	8.27844	5.46460	19.94387	14.67177	25.36907	7.26101	7.35747	7.17121	28.68485	14.29750	12.14163	25.15	6.1	0.00	7.37	0.01274	0.01290	0.01669	0.00776	0.00578	0.00634	0.00468	0.01267	0.01688	0.00674	0.00685	0.00888	0.01491	0.01097	0.01198	0.00217	0.00615	0.00864
42850	4.22241	5.24968	6.94059	13.38909	12.94162	16.00333	10.94285	9.98132	9.22977	12.65558	18.80312	21.70911	10.23855	9.68576	8.40181	27.38811	31.06248	30.78532
43010	8.09636	6.76356	7.58986	24.03205	21.52431	15.70261	10.45349	8.99528	8.79839	15.26270	14.34481	15.36128	9.77074	10.14658	9.52986	18.86426	15.95672	19.21308
43180	7.87810	7.97712	10.70404	14.28062	24.72235	12.84256	11.79787	7.67259	9.73683	13.23061	21.54945	10.12843	6.71996	11.05500	8.92388	16.14807	21.07385	21.27158
43340	5.70648	6.32358	7.89356	10.12530	9.12597	7.66939	12.51407	7.66203	6.87501	8.38327	12.50876	7.87155	6.86306	4.65621	4.30973	14.73554	16.07904	16.92365
43510	6.33486	4.34825	6.37898	13.36876	5.90190	6.44940	11.11764	10.25925	8.42283	19.39240	10.64062	15.92434	6.16755	4.89477	7.53339	13.51950	14.48968	12.07339
43670	6.04447	5.68337	5.95534	16.63091	8.96909	7.45378	8.94257	7.02379	5.29919	8.93366	10.55365	10.50461	7.47241	10.45259	11.79480	21.75371	18.01492	12.51853
43830	5.30368	8.05174	6.94256	12.88903	9.00218	7.82116	9.27480	9.31218	6.48764	11.40176	7.54316	20.05173	7.77671	9.83993	7.08069	16.82046	18.23569	21.77680
44000	8.36502	7.75821	8.36278	25.84683	14.83662	35.34701	12.70021	9.60549	9.06730	11.11674	15.25808	24.60956	8.00851	6.98214	6.63920	15.10732	21.20711	18.79099
44160	5.00785	5.13298	5.62990	18.63988	21.40048	24.82762	7.92872	6.83658	5.62778	6.15946	9.06394	12.68193	5.01498	3.81978	4.85625	16.88870	9.49486	10.98183
44330	4.75792	5.49492	7.92380	22.35894	18.79998	8.69760	10.02907	10.31523	5.72902	19.15892	11.76521	16.14283	5.47067	9.36634	8.38999	18.41732	12.16234	21.40759	25.15	6.1	0.00	7.37	0.01274	0.01290	0.01669	0.00776	0.00578	0.00633	0.00468	0.01267	0.01688	0.00673	0.00685	0.00887	0.01491	0.01097	0.01198	0.00217	0.00615	0.00864
44490	5.70543	8.49465	4.43486	25.33773	8.76013	31.16504	8.84158	9.57288	9.63765	15.69206	16.31332	21.19225	8.72705	9.11345	6.90171	25.49036	24.94131	16.68596
44660	6.52702	8.07907	8.69818	17.26360	24.42629	25.89513	11.89892	10.34078	5.69802	12.88162	13.63994	12.62911	7.44363	10.15802	6.83406	16.90357	28.41890	10.23421
44820	10.58000	6.75402	7.33164	10.70931	15.62183	15.25983	12.70030	8.28907	8.45035	20.45211	18.65042	22.09897	10.64147	8.43016	8.46539	35.20135	11.81821	19.02800
44980	4.76497	5.87535	5.02799	12.45281	10.57974	28.00017	9.98298	7.67809	3.54274	7.96250	13.78105	11.17341	7.11037	7.28392	8.36320	17.46348	13.37755	17.57395
45150	5.87920	9.23103	7.50696	36.48807	18.62028	24.88527	8.96306	6.36892	8.64469	36.08712	41.42780	28.37734	5.85971	6.12629	7.03290	30.08600	27.96217	29.61477
45310	6.73882	6.23125	5.94203	10.96029	14.54982	19.96579	12.47327	12.84787	7.55905	17.72098	24.26084	17.22528	6.23776	4.95020	6.28276	13.93115	8.52683	7.36498
45480	4.45782	4.48040	6.05157	8.11926	11.80392	17.92672	13.80740	11.65612	9.33757	18.82329	20.27925	18.68080	7.56072	7.74232	8.26282	19.41779	16.76576	19.74126
45640	7.74378	6.95989	6.68700	17.47821	14.40415	13.88842	11.79008	8.65589	5.40399	14.53467	19.24645	19.16220	8.18710	8.92146	7.07469	12.72560	9.84925	5.59447
45800	9.19956	6.76822	7.17998	8.53619	13.44917	25.03410	12.22309	11.15292	6.76801	11.61189	12.82528	12.58662	4.45040	6.78256	7.11712	15.01672	15.23804	14.74417
45970	7.66029	8.50904	10.30289	9.90243	9.69297	6.20238	13.32586	9.41488	9.57552	10.79466	11.87050	12.45078	9.65913	7.80870	6.93218	21.24825	29.11973	22.19153	25.15	6.2	0.00	7.07	0.01274	0.01290	0.01669	0.00776	0.00578	0.00634	0.00468	0.01267	0.01688	0.00674	0.00685	0.00887	0.01491	0.01097	0.01198	0.00217	0.00615	0.00865
46130	8.47906	9.60769	8.39153	24.11211	17.65498	13.19811	10.10910	10.22539	8.67979	9.44838	10.06141	10.37819	9.42710	5.72026	6.89772	8.59487	14.90851	5.57698
46290	7.10049	6.73838	4.66090	5.92491	10.24824	10.79471	11.24991	10.66465	6.34017	11.13362	9.31172	26.22501	10.46725	7.99766	5.59894	16.78975	17.63853	13.53167
46460	5.06759	5.29055	5.88577	16.42113	14.52420	22.55316	10.61725	8.66338	9.63038	25.33787	17.66524	23.04268	10.07314	9.87956	9.25355	18.31130	19.64318	16.25817
46620	6.27652	6.62381	9.94554	10.20553	12.97879	16.68729	14.48565	10.00121	7.35890	19.59048	16.55078	14.36309	7.32439	6.03326	9.96216	24.12214	8.34852	7.78131
46790	6.13926	9.07345	7.68129	16.24036	9.53814	7.00041	9.80689	7.17339	5.38519	6.40895	13.49996	11.91268	6.17158	6.16750	2.71377	10.32525	6.01743	3.08995
46950	4.49041	5.37971	5.46922	10.88258	7.91003	5.15778	11.53367	8.41783	6.35060	7.71434	8.61842	10.32466	9.95983	8.78703	7.72281	10.15372	18.04841	10.97456
47120	12.06558	7.99132	9.32427	11.11168	24.00326	14.69522	12.04268	10.78302	14.58243	11.40938	21.67397	22.06266	8.18305	9.14664	6.84134	22.71128	32.32817	15.57875
47280	9.03500	7.59943	7.17905	29.39250	17.74158	10.94625	14.33700	6.51473	4.25469	4.78597	6.58480	12.32391	4.88389	5.35785	3.21792	12.92391	5.36112	6.39088
47450	6.32026	5.57356	6.23367	8.43820	3.11133	3.08623	11.03772	9.04292	6.37290	6.96345	4.57300	6.38614	8.54539	6.59117	6.22357	18.23247	10.15171	14.52268
47610	5.43815	5.75425	6.92284	10.16739	34.04127	26.32173	11.71052	9.31741	9.49092	21.23981	21.86317	25.65768	10.99794	9.77981	11.58995	15.87084	14.43287	15.16467	25.21	6.2	0.00	7.45	0.01274	0.01290	0.01669	0.00776	0.00578	0.00634	0.00468	0.01267	0.01688	0.00674	0.00685	0.00887	0.01491	0.01097	0.01198	0.00217	0.00615	0.00865
47770	6.14232	4.85467	5.18249	12.89546	5.81945	7.49406	13.71933	9.47973	9.09555	14.28588	18.97161	19.37394	5.41028	6.40733	7.60368	18.37358	9.28720	14.79415
47940	9.51586	11.48516	7.49573	13.15413	17.93126	16.03003	10.92728	10.77315	8.30936	15.36297	7.67354	10.00377	10.00698	10.35926	8.41266	11.85460	18.46977	18.91433
48110	9.07150	7.90401	8.08613	10.18637	9.44700	7.83822	11.05916	9.47614	10.02659	8.00096	5.91198	6.40128	7.56766	8.09464	3.74493	8.71488	3.68521	3.91508
48270	6.41502	5.59670	3.97929	6.07545	7.33365	8.71268	11.31120	8.66780	8.00175	8.92923	6.84813	7.55075	5.64445	7.91939	6.35937	15.41416	12.99289	9.17193
48430	6.63589	6.15267	6.89945	16.95650	11.23623	13.09410	16.32643	12.00377	10.19610	11.05169	17.25586	20.07234	10.01109	11.83465	7.14373	18.51095	13.84115	5.63352
48600	3.91443	6.20835	6.55446	6.19892	4.93508	6.75426	13.76150	8.68789	6.24259	5.39420	5.64644	4.56352	8.20362	8.45271	7.76662	18.05291	9.64217	8.47757
48760	4.80227	5.54118	9.13972	13.30453	7.04278	11.35069	8.68043	12.65863	9.15241	15.30261	10.24926	6.95153	5.53139	8.43254	7.93577	7.70181	7.33633	9.66816
48930	6.28563	7.73754	4.31500	7.18501	2.80809	3.77817	11.06331	8.34101	6.49298	5.10337	6.83993	9.74478	5.00419	7.81072	8.89835	20.33393	18.86411	10.36057
49090	8.11953	5.59608	7.48821	25.28118	35.04070	29.06852	13.53908	12.20821	12.60678	24.59441	32.04435	30.71318	11.02989	8.47269	7.36536	37.63323	19.52764	16.00049
49250	9.21897	8.77165	8.20930	16.72175	17.83758	21.32740	9.16511	7.52319	8.16352	10.28320	8.43641	3.28859	4.42000	5.65647	6.17418	12.02623	11.36438	5.93193	25.21	6.1	0.00	7.38	0.01274	0.01290	0.01669	0.00776	0.00578	0.00634	0.00468	0.01267	0.01688	0.00673	0.00685	0.00888	0.01491	0.01097	0.01198	0.00217	0.00615	0.00865
49420	5.13673	6.20511	7.21121	6.31526	6.29004	4.98691	9.04455	5.97746	5.33875	8.55458	8.49953	10.78849	4.36852	7.00954	5.50526	10.29965	22.02814	16.63055
49580	4.82881	5.16254	4.60121	13.03807	9.61601	11.76266	9.27718	8.99148	9.44238	24.20443	11.77260	14.78097	5.42043	7.01889	7.09007	17.81331	15.52858	15.65371
49740	7.48495	4.32550	3.77837	17.09502	11.98146	12.39861	12.24726	12.39914	8.93815	5.37231	3.90817	5.63319	10.47906	5.53620	4.97023	19.73321	12.84029	9.86973
49910	7.49323	6.03145	8.55187	7.04324	11.96270	12.55524	10.66436	13.34555	8.47856	17.55561	17.44151	10.28106	5.82489	4.39125	3.31537	10.72275	14.98080	4.80447
50070	6.25430	5.41447	6.28990	4.96041	16.89088	7.41541	9.94188	7.68741	4.32079	13.59039	10.06070	8.31607	7.05753	8.49449	7.29143	37.60369	25.09560	16.03532
50240	5.38621	9.94585	6.69028	15.34210	13.50848	8.12860	12.47580	10.02491	9.73797	8.10259	8.37516	14.86157	6.23417	11.17912	7.24833	23.07486	17.77076	7.54260
50400	6.61281	7.48252	6.70448	11.39466	13.00019	17.53563	10.61432	11.35239	9.60501	11.87999	15.26365	9.88545	7.76380	7.89356	6.84873	12.40894	11.88102	13.48310
50570	4.01036	7.27680	5.75476	4.96251	12.00929	10.19014	9.67156	4.98083	8.81298	14.38974	22.75498	18.54162	6.03559	10.65272	7.95537	9.66020	13.01229	14.92414
50730	8.15874	6.25460	7.07309	31.17872	19.57323	18.74149	16.31064	12.96189	10.23956	18.16061	8.96402	7.92013	9.53630	7.40531	5.91351	10.75184	13.29064	10.07895
50890	8.30932	6.61348	5.77474	10.67312	9.82685	8.87615	10.84311	9.64201	5.56221	13.53515	12.32519	14.58705	5.36485	4.35206	4.61918	15.64401	12.42077	12.91393	25.21	6.2	0.00	7.35	0.01274	0.01290	0.01669	0.00776	0.00578	0.00634	0.00468	0.01267	0.01688	0.00673	0.00686	0.00888	0.01491	0.01097	0.01198	0.00217	0.00615	0.00865
51060	3.90829	5.08425	7.63997	10.17614	9.14170	11.76943	10.60518	12.63245	10.74859	10.13776	5.54885	4.89245	6.15056	7.35414	3.40946	14.67464	14.30666	12.94474
51220	6.96298	4.06337	3.71395	23.37674	31.04767	29.62813	10.12363	7.04988	6.76195	22.33984	16.92170	27.29787	2.93916	5.70554	5.59850	18.52316	21.04358	12.83366
51380	6.89669	6.46000	7.24577	8.96398	9.73274	5.34975	10.22932	7.95207	5.24322	5.24530	6.39438	7.46064	4.90549	5.53251	3.30734	9.68696	11.49993	9.84848
51550	6.43442	3.50951	5.46909	6.92910	8.12146	6.28834	15.65039	9.89699	6.45420	6.94629	3.41498	3.04141	7.88042	8.21219	9.93331	8.82658	5.26156	6.06100
51710	8.47566	8.48934	8.45314	9.36387	16.83297	18.13658	9.25510	7.76948	6.86249	16.75541	17.28204	5.51812	6.42473	5.48553	10.30733	25.34384	17.53222	9.09816
51880	10.49551	9.42915	11.94081	16.88550	17.75984	25.76390	17.87766	17.01531	11.40309	15.76544	17.39972	17.01290	9.72038	9.07771	12.57883	18.41757	24.87510	13.71347
52040	9.49493	9.97879	7.18806	22.44867	18.87899	7.38021	8.13876	7.69423	6.78688	6.85969	10.81156	3.93093	6.48830	4.36324	5.72523	6.71204	9.82618	7.74249
52200	4.84791	4.56843	3.41173	7.84143	14.49223	8.73085	13.97962	7.74474	6.02048	9.71473	9.18617	5.97288	5.02880	4.67481	5.31256	11.18996	15.00150	14.48776
52370	4.54502	7.17558	8.50887	13.59910	17.35779	18.59024	12.03607	10.33113	10.10881	27.03680	22.66195	16.57045	8.35980	9.18563	11.49248	12.36318	16.50474	17.29546
52530	7.44767	4.80083	6.02395	7.86232	12.84605	23.06226	11.43145	10.00570	6.62494	5.03088	6.97965	10.13249	2.59932	2.64746	2.61247	18.86845	8.60110	9.46736	25.21	6.1	0.00	7.37	0.01274	0.01290	0.01669	0.00776	0.00578	0.00634	0.00468	0.01267	0.01688	0.00674	0.00686	0.00888	0.01491	0.01097	0.01198	0.00217	0.00616	0.00865
52700	3.98637	3.86825	5.86204	7.29853	6.32429	8.95379	9.59117	7.48640	8.83004	11.98813	12.96185	18.76874	6.59456	3.53369	8.60667	14.29686	24.65493	17.94618
52860	6.69555	7.99926	4.75089	17.55247	14.38087	26.94948	11.00810	10.89928	11.34677	24.56978	27.37341	19.94049	7.57863	8.47724	7.25030	16.35594	17.69506	16.07728
53030	5.29653	8.78511	9.27499	16.49953	21.96672	28.06219	14.10923	11.59354	8.85846	18.57646	14.38650	12.82306	4.67068	2.55967	3.01687	16.93621	11.24917	7.54719
53190	3.39655	3.55297	5.58036	7.08370	5.24613	5.76738	10.23710	11.70094	9.75416	2.84669	4.62618	13.43654	8.23068	7.75608	7.66558	8.59310	13.55546	12.60509
53350	7.44333	7.06214	7.26840	18.99778	16.17836	14.36248	10.62027	7.83231	8.19888	11.07226	16.68491	21.10485	6.36772	7.31341	7.77731	24.07085	17.61127	11.39340
53520	7.36336	8.97906	5.37424	11.77626	10.97039	20.11601	12.68590	9.42743	10.76066	21.89088	17.97235	13.57557	11.58149	7.95916	7.93973	67.00713	42.64853	34.75814
53680	10.35691	10.88899	11.53045	40.35440	32.36616	34.74297	15.19528	14.30472	9.99475	30.70837	28.33673	6.36444	7.71109	6.20901	8.96744	20.96275	13.68205	15.77528
53840	4.81871	4.60781	3.50055	16.21249	19.32005	12.79179	7.51908	6.24776	5.15597	9.41437	4.14084	3.99537	6.36143	9.17606	5.92094	10.76927	7.08029	11.60967
54010	5.85989	8.73451	8.76369	5.45526	7.83587	4.53382	13.19277	9.37323	4.10354	13.26506	7.74393	4.92515	5.88469	5.56532	7.45765	22.56521	8.75607	17.34760
54170	7.75873	6.42864	7.31890	22.16335	10.32603	11.35826	12.94996	10.42366	9.23729	11.86197	14.03681	10.75055	6.70640	4.01523	3.85764	7.45044	7.78450	16.58958	25.21	6.1	0.00	7.37	0.01274	0.01290	0.01668	0.00776	0.00578	0.00634	0.00468	0.01267	0.01688	0.00674	0.00686	0.00888	0.01491	0.01097	0.01198	0.00217	0.00615	0.00865
54340	4.71572	4.98141	4.94206	4.18442	8.53264	13.88874	9.66944	10.66668	8.51665	9.76555	12.14919	7.12264	4.80859	6.66376	6.83031	13.38560	9.30214	8.40739
54500	6.86432	8.18421	6.86028	3.24650	4.74797	4.60257	14.38615	9.19110	4.90222	6.67745	4.46235	9.09071	10.76737	8.60557	7.81356	15.42611	11.59502	6.44227
54670	5.04165	4.99434	3.92820	20.77279	13.28044	8.44089	12.35169	9.54170	6.04231	12.80336	7.45256	7.67811	6.83985	4.22864	5.60768	18.05812	13.89859	12.94866
54830	8.62798	6.48703	5.13851	4.49584	13.76478	7.95475	8.37238	7.09589	6.81352	14.77751	16.02622	9.23485	4.19945	5.09521	5.82387	20.40977	12.39348	24.63813
54990	6.34344	6.08894	6.35241	12.58270	6.80850	12.06132	12.65325	16.43857	10.37477	20.07997	16.78686	8.72957	8.08204	5.62467	5.12032	20.94842	11.23402	12.14011
55160	6.29666	5.30747	7.98133	9.46165	14.08564	14.63726	5.73022	5.84026	5.33680	6.95064	7.09615	10.27317	3.33957	5.65672	7.78050	11.02446	9.24311	11.13717
55320	9.07325	4.67621	7.71830	14.66428	9.77785	13.35011	10.81377	10.93029	12.89882	20.35234	18.71717	22.53805	10.87866	7.56293	8.89704	22.82076	27.66480	16.38991
55490	5.94507	7.60756	7.35936	13.90115	15.84460	14.70662	7.82916	12.92430	9.23462	5.76127	10.48234	10.63167	9.16440	7.38321	7.07194	16.98131	10.51884	23.30564
55650	4.16571	7.36243	3.78569	18.56390	15.64759	8.21233	12.52086	8.86622	4.93592	9.20679	14.54663	25.15677	9.19184	5.84413	7.90446	10.41477	8.90037	10.39826
55810	5.05368	7.14012	7.59328	14.25711	5.83802	6.50742	12.48474	12.15542	9.55607	15.04935	15.84719	21.58981	12.24755	9.12308	2.66116	11.97830	14.76319	29.77258	25.21	6.2	0.00	7.39	0.01274	0.01290	0.01668	0.00776	0.00578	0.00634	0.00468	0.01267	0.01688	0.00673	0.00685	0.00888	0.01491	0.01097	0.01198	0.00217	0.00615	0.00865
55980	5.66395	5.23662	5.36974	14.81715	11.51807	12.63188	7.83900	8.89349	7.52959	6.45494	7.34098	8.87098	6.19717	8.13209	9.80691	17.19426	12.35976	13.21147
56140	5.69497	9.46360	9.15031	7.80194	19.84975	9.28174	17.40164	12.65740	7.34033	17.32111	9.37816	11.68499	4.15472	5.33023	6.42108	12.44501	20.46975	24.33321
56310	5.67424	4.71201	5.12276	24.47385	24.02477	21.77862	8.78090	9.22109	6.92011	11.33293	15.80262	40.87760	6.61494	6.58096	9.04995	23.02450	24.65495	31.28121
56470	8.78465	8.44137	10.67886	50.93670	28.92715	32.47623	14.04643	9.18230	7.31647	21.23635	16.55087	20.47494	8.39925	8.20197	10.44625	23.12137	14.49928	22.64035
56630	6.72671	7.73889	7.50044	7.88282	16.35325	13.58483	14.56477	9.44581	8.91368	14.08530	26.23969	18.29773	7.32539	9.46695	11.25934	20.55262	23.28695	32.34299
56800	9.78547	10.39601	13.34650	34.99221	24.83258	25.62762	16.01066	13.46216	12.12664	21.57726	13.86751	23.67712	10.63024	8.93325	11.53626	21.99666	22.99661	13.45811
56960	9.92801	7.93596	4.55692	11.95704	6.29129	7.95724	10.40481	8.24008	6.49125	7.84341	13.87693	10.41909	7.05200	3.86061	8.46120	22.34028	30.95700	17.77072
57130	5.66049	6.52881	7.77501	18.57241	16.82383	20.44738	12.24329	11.56846	11.30656	13.31728	17.34876	14.23202	7.04012	6.37584	7.32488	11.45555	13.14458	19.27660
57290	11.14426	7.48115	11.54907	14.55502	19.51833	14.38373	15.65342	7.96593	6.92866	25.97814	17.47595	20.20378	11.84276	8.96860	9.90778	17.20474	12.84817	12.40261
57450	6.67797	10.42304	10.61779	15.61701	23.55868	17.83281	14.15494	12.21248	11.26832	15.20199	14.48916	6.73413	7.72420	6.40177	8.20539	14.17037	8.33246	6.76365	25.21	6.1	0.00	7.42	0.01274	0.01290	0.01668	0.00776	0.00578	0.00633	0.00468	0.01267	0.01688	0.00673	0.00685	0.00888	0.01491	0.01097	0.01198	0.00217	0.00615	0.00864
57620	4.54630	7.59595	7.94568	17.29314	12.12977	17.17434	12.69232	11.83359	8.21177	16.31745	18.41923	20.59138	4.71188	8.91151	8.56955	27.77593	24.22607	26.94190
57780	4.93226	4.92747	9.26127	15.83560	14.78854	19.38219	12.87512	8.77826	8.72863	28.68737	25.24291	30.28438	10.20000	8.30735	7.25027	26.63853	25.16347	21.21577
57950	5.41226	6.03659	7.14718	10.29592	13.53786	17.59109	10.43473	6.48535	9.67380	17.93000	11.76991	11.40986	5.11121	7.34552	7.39306	14.53227	11.95538	6.09304
58110	8.58811	6.30425	7.49915	7.10072	13.39889	7.19694	10.90543	15.41922	10.78055	10.81672	10.94469	8.72724	9.30302	8.50942	6.90144	15.60550	7.36321	12.03799
58270	7.21382	9.39336	7.45968	13.29182	18.78891	6.87540	13.36344	11.02088	7.30232	8.08951	10.18763	11.37199	9.36278	9.75172	11.12543	24.61764	11.96288	9.81817
58440	5.28000	11.14776	8.09652	20.73446	13.24095	13.33341	11.48662	11.37382	10.14590	12.84028	21.26321	16.87813	12.29027	9.62940	5.15931	29.80538	34.96166	24.13567
58600	7.53760	9.23542	11.52959	26.10701	15.50011	16.29416	15.39881	10.32723	6.02816	13.59246	11.53097	18.07271	5.22546	7.27966	5.70659	19.63090	26.12820	18.13149
58760	5.43637	5.51744	3.67438	13.37926	19.51799	15.32045	14.55657	12.39797	6.60282	18.19583	16.77542	16.35539	6.10216	7.86071	7.90645	17.97103	21.23906	18.60373
58930	7.05064	6.54235	6.17781	18.89460	26.85509	20.44829	14.05770	9.31184	6.26377	21.68560	15.23318	11.04112	8.37201	7.43540	9.32000	14.38843	22.33712	19.70869
59090	5.41581	2.60886	2.73834	7.08505	9.12840	9.43047	8.23896	9.77633	8.42978	12.30122	9.30459	16.53147	8.11354	6.07900	6.52974	33.57395	11.90925	10.03394	25.27	6.1	0.00	7.38	0.01274	0.01290	0.01668	0.00776	0.00577	0.00633	0.00468	0.01267	0.01688	0.00673	0.00685	0.00888	0.01491	0.01097	0.01198	0.00217	0.00615	0.00864
59250	4.44007	6.10950	7.24916	20.06939	25.98885	17.37825	12.24137	9.91150	4.14049	16.38345	14.56992	6.35686	7.56679	7.13144	5.01052	23.40635	22.44520	15.87850
59420	9.52739	6.61748	4.85749	14.96585	13.25732	25.53823	10.16354	9.43247	9.41588	8.81910	10.12188	9.93234	8.90040	8.95934	6.79051	7.24104	5.79859	4.79100
